,trial_type,trial_index,time_elapsed,subject,study_id,condition,rt,view_history,response,filename,task,label,img_id
0,pavlovia,0,1813,jc93bl6n96s9etn,62bda645663933726fde6a37,21,,,,,,,
1,external-html,1,12597,jc93bl6n96s9etn,62bda645663933726fde6a37,21,10590.20000000298,,,,,,
2,instructions,2,89715,jc93bl6n96s9etn,62bda645663933726fde6a37,21,77116.39999999851,"[{""page_index"":0,""viewing_time"":5903.30000000447},{""page_index"":1,""viewing_time"":5713.0999999940395},{""page_index"":2,""viewing_time"":7286.10000000149},{""page_index"":3,""viewing_time"":11939.5},{""page_index"":4,""viewing_time"":18333.5},{""page_index"":5,""viewing_time"":14915.20000000298},{""page_index"":6,""viewing_time"":3097.39999999851},{""page_index"":7,""viewing_time"":5404.29999999702},{""page_index"":8,""viewing_time"":4522.9000000059605}]",,,,,
3,survey-multi-choice,3,98586,jc93bl6n96s9etn,62bda645663933726fde6a37,21,8864.89999999851,,"{""Q0"":""The most likely category, or categories, of an image and the associated probability of the selected categories."",""Q1"":""100 crowdsourced workers.""}",,,,
4,instructions,4,100264,jc93bl6n96s9etn,62bda645663933726fde6a37,21,1670.0,"[{""page_index"":0,""viewing_time"":1669.5}]",,,,,
5,preload,5,102329,jc93bl6n96s9etn,62bda645663933726fde6a37,21,,,,,,,
6,survey-html-form,6,149770,jc93bl6n96s9etn,62bda645663933726fde6a37,21,47434.5,,"{""classSelect"":""mostProbDeer"",""prob"":""100"",""classSelect2"":""secondProbNo"",""prob2"":"""",""improbClassSelectFrog"":""1"",""improbClassSelectAutomobile"":""1"",""improbClassSelectHorse"":""1"",""improbClassSelectShip"":""1"",""improbClassSelectDog"":""1"",""improbClassSelectBird"":""1"",""improbClassSelectCat"":""1"",""improbClassSelectAirplane"":""1"",""improbClassSelectTruck"":""1""}",cifar10_train_1128_Deer.png,spec_conf,Deer,1128.0
7,survey-html-form,7,191499,jc93bl6n96s9etn,62bda645663933726fde6a37,21,41721.10000000149,,"{""classSelect"":""mostProbCat"",""prob"":""100"",""classSelect2"":""secondProbNo"",""prob2"":"""",""improbClassSelectFrog"":""1"",""improbClassSelectAutomobile"":""1"",""improbClassSelectHorse"":""1"",""improbClassSelectShip"":""1"",""improbClassSelectDog"":""1"",""improbClassSelectBird"":""1"",""improbClassSelectAirplane"":""1"",""improbClassSelectTruck"":""1"",""improbClassSelectDeer"":""1""}",cifar10_train_8386_Cat.png,spec_conf,Cat,8386.0
8,survey-html-form,8,233205,jc93bl6n96s9etn,62bda645663933726fde6a37,21,41695.39999999851,,"{""classSelect"":""mostProbHorse"",""prob"":""100"",""classSelect2"":""secondProbNo"",""prob2"":"""",""improbClassSelectFrog"":""1"",""improbClassSelectAutomobile"":""1"",""improbClassSelectShip"":""1"",""improbClassSelectDog"":""1"",""improbClassSelectBird"":""1"",""improbClassSelectCat"":""1"",""improbClassSelectAirplane"":""1"",""improbClassSelectTruck"":""1"",""improbClassSelectDeer"":""1""}",cifar10_train_6962_Horse.png,spec_conf,Horse,6962.0
9,survey-html-form,9,259513,jc93bl6n96s9etn,62bda645663933726fde6a37,21,26298.80000000447,,"{""classSelect"":""mostProbAutomobile"",""prob"":""100"",""classSelect2"":""secondProbNo"",""prob2"":"""",""improbClassSelectFrog"":""1"",""improbClassSelectHorse"":""1"",""improbClassSelectShip"":""1"",""improbClassSelectDog"":""1"",""improbClassSelectBird"":""1"",""improbClassSelectCat"":""1"",""improbClassSelectAirplane"":""1"",""improbClassSelectTruck"":""1"",""improbClassSelectDeer"":""1""}",cifar10_train_9626_Automobile.png,spec_conf,Automobile,9626.0
10,survey-html-form,10,316118,jc93bl6n96s9etn,62bda645663933726fde6a37,21,56598.0,,"{""classSelect"":""mostProbDeer"",""prob"":""75"",""classSelect2"":""secondProbDeer"",""prob2"":""25"",""improbClassSelectFrog"":""1"",""improbClassSelectAutomobile"":""1"",""improbClassSelectShip"":""1"",""improbClassSelectDog"":""1"",""improbClassSelectBird"":""1"",""improbClassSelectCat"":""1"",""improbClassSelectAirplane"":""1"",""improbClassSelectTruck"":""1""}",cifar10_train_8647_Deer.png,spec_conf,Deer,8647.0
11,survey-html-form,11,362875,jc93bl6n96s9etn,62bda645663933726fde6a37,21,46748.79999999702,,"{""classSelect"":""mostProbFrog"",""prob"":""100"",""classSelect2"":""secondProbNo"",""prob2"":"""",""improbClassSelectAutomobile"":""1"",""improbClassSelectHorse"":""1"",""improbClassSelectShip"":""1"",""improbClassSelectDog"":""1"",""improbClassSelectBird"":""1"",""improbClassSelectCat"":""1"",""improbClassSelectAirplane"":""1"",""improbClassSelectTruck"":""1"",""improbClassSelectDeer"":""1""}",cifar10_train_9555_Deer.png,spec_conf,Deer,9555.0
12,survey-html-form,12,401138,jc93bl6n96s9etn,62bda645663933726fde6a37,21,38257.89999999851,,"{""classSelect"":""mostProbDeer"",""prob"":""85"",""classSelect2"":""secondProbHorse"",""prob2"":""15"",""improbClassSelectFrog"":""1"",""improbClassSelectAutomobile"":""1"",""improbClassSelectShip"":""1"",""improbClassSelectDog"":""1"",""improbClassSelectBird"":""1"",""improbClassSelectCat"":""1"",""improbClassSelectAirplane"":""1"",""improbClassSelectTruck"":""1""}",cifar10_train_8637_Deer.png,spec_conf,Deer,8637.0
13,survey-html-form,13,438912,jc93bl6n96s9etn,62bda645663933726fde6a37,21,37768.5,,"{""classSelect"":""mostProbDeer"",""prob"":""100"",""classSelect2"":""secondProbNo"",""prob2"":"""",""improbClassSelectFrog"":""1"",""improbClassSelectAutomobile"":""1"",""improbClassSelectHorse"":""1"",""improbClassSelectShip"":""1"",""improbClassSelectDog"":""1"",""improbClassSelectBird"":""1"",""improbClassSelectCat"":""1"",""improbClassSelectAirplane"":""1"",""improbClassSelectTruck"":""1""}",cifar10_train_4368_Deer.png,spec_conf,Deer,4368.0
14,survey-html-form,14,470011,jc93bl6n96s9etn,62bda645663933726fde6a37,21,31091.69999999553,,"{""classSelect"":""mostProbDeer"",""prob"":""100"",""classSelect2"":""secondProbNo"",""prob2"":"""",""improbClassSelectFrog"":""1"",""improbClassSelectAutomobile"":""1"",""improbClassSelectHorse"":""1"",""improbClassSelectShip"":""1"",""improbClassSelectDog"":""1"",""improbClassSelectBird"":""1"",""improbClassSelectCat"":""1"",""improbClassSelectAirplane"":""1"",""improbClassSelectTruck"":""1""}",cifar10_train_7084_Deer.png,spec_conf,Deer,7084.0
15,survey-html-form,15,504707,jc93bl6n96s9etn,62bda645663933726fde6a37,21,34689.5,,"{""classSelect"":""mostProbDeer"",""prob"":""100"",""classSelect2"":""secondProbNo"",""prob2"":"""",""improbClassSelectFrog"":""1"",""improbClassSelectAutomobile"":""1"",""improbClassSelectHorse"":""1"",""improbClassSelectShip"":""1"",""improbClassSelectDog"":""1"",""improbClassSelectBird"":""1"",""improbClassSelectCat"":""1"",""improbClassSelectAirplane"":""1"",""improbClassSelectTruck"":""1""}",cifar10_train_2523_Deer.png,spec_conf,Deer,2523.0
16,survey-html-form,16,546221,jc93bl6n96s9etn,62bda645663933726fde6a37,21,41508.20000000298,,"{""classSelect"":""mostProbBird"",""prob"":""100"",""classSelect2"":""secondProbNo"",""prob2"":"""",""improbClassSelectFrog"":""1"",""improbClassSelectAutomobile"":""1"",""improbClassSelectHorse"":""1"",""improbClassSelectShip"":""1"",""improbClassSelectDog"":""1"",""improbClassSelectCat"":""1"",""improbClassSelectAirplane"":""1"",""improbClassSelectTruck"":""1"",""improbClassSelectDeer"":""1""}",cifar10_train_2310_Frog.png,spec_conf,Frog,2310.0
17,survey-html-form,17,588513,jc93bl6n96s9etn,62bda645663933726fde6a37,21,42286.0,,"{""classSelect"":""mostProbFrog"",""prob"":""50"",""classSelect2"":""secondProbBird"",""prob2"":""50"",""improbClassSelectAutomobile"":""1"",""improbClassSelectHorse"":""1"",""improbClassSelectShip"":""1"",""improbClassSelectDog"":""1"",""improbClassSelectCat"":""1"",""improbClassSelectAirplane"":""1"",""improbClassSelectTruck"":""1"",""improbClassSelectDeer"":""1""}",cifar10_train_7874_Frog.png,spec_conf,Frog,7874.0
18,survey-html-form,18,655610,jc93bl6n96s9etn,62bda645663933726fde6a37,21,67091.10000000149,,"{""classSelect"":""mostProbBird"",""prob"":""100"",""classSelect2"":""secondProbNo"",""prob2"":"""",""improbClassSelectFrog"":""1"",""improbClassSelectAutomobile"":""1"",""improbClassSelectHorse"":""1"",""improbClassSelectShip"":""1"",""improbClassSelectDog"":""1"",""improbClassSelectCat"":""1"",""improbClassSelectAirplane"":""1"",""improbClassSelectTruck"":""1"",""improbClassSelectDeer"":""1""}",cifar10_train_9123_Bird.png,spec_conf,Bird,9123.0
19,survey-html-form,19,686035,jc93bl6n96s9etn,62bda645663933726fde6a37,21,30418.20000000298,,"{""classSelect"":""mostProbBird"",""prob"":""100"",""classSelect2"":""secondProbNo"",""prob2"":"""",""improbClassSelectFrog"":""1"",""improbClassSelectAutomobile"":""1"",""improbClassSelectHorse"":""1"",""improbClassSelectShip"":""1"",""improbClassSelectDog"":""1"",""improbClassSelectCat"":""1"",""improbClassSelectAirplane"":""1"",""improbClassSelectTruck"":""1"",""improbClassSelectDeer"":""1""}",cifar10_train_3533_Bird.png,spec_conf,Bird,3533.0
20,survey-html-form,20,730642,jc93bl6n96s9etn,62bda645663933726fde6a37,21,44602.20000000298,,"{""classSelect"":""mostProbAirplane"",""prob"":""100"",""classSelect2"":""secondProbNo"",""prob2"":"""",""improbClassSelectFrog"":""1"",""improbClassSelectAutomobile"":""1"",""improbClassSelectHorse"":""1"",""improbClassSelectShip"":""1"",""improbClassSelectDog"":""1"",""improbClassSelectBird"":""1"",""improbClassSelectCat"":""1"",""improbClassSelectTruck"":""1"",""improbClassSelectDeer"":""1""}",cifar10_train_928_Airplane.png,spec_conf,Airplane,928.0
21,survey-html-form,21,773488,jc93bl6n96s9etn,62bda645663933726fde6a37,21,42839.40000000596,,"{""classSelect"":""mostProbFrog"",""prob"":""100"",""classSelect2"":""secondProbNo"",""prob2"":"""",""improbClassSelectAutomobile"":""1"",""improbClassSelectHorse"":""1"",""improbClassSelectShip"":""1"",""improbClassSelectDog"":""1"",""improbClassSelectBird"":""1"",""improbClassSelectCat"":""1"",""improbClassSelectAirplane"":""1"",""improbClassSelectTruck"":""1"",""improbClassSelectDeer"":""1""}",cifar10_train_6502_Frog.png,spec_conf,Frog,6502.0
22,survey-html-form,22,805581,jc93bl6n96s9etn,62bda645663933726fde6a37,21,32085.69999999553,,"{""classSelect"":""mostProbCat"",""prob"":""100"",""classSelect2"":""secondProbNo"",""prob2"":"""",""improbClassSelectFrog"":""1"",""improbClassSelectAutomobile"":""1"",""improbClassSelectHorse"":""1"",""improbClassSelectShip"":""1"",""improbClassSelectDog"":""1"",""improbClassSelectBird"":""1"",""improbClassSelectAirplane"":""1"",""improbClassSelectTruck"":""1"",""improbClassSelectDeer"":""1""}",cifar10_train_9678_Cat.png,spec_conf,Cat,9678.0
23,survey-html-form,23,835290,jc93bl6n96s9etn,62bda645663933726fde6a37,21,29702.0,,"{""classSelect"":""mostProbBird"",""prob"":""100"",""classSelect2"":""secondProbNo"",""prob2"":"""",""improbClassSelectFrog"":""1"",""improbClassSelectAutomobile"":""1"",""improbClassSelectHorse"":""1"",""improbClassSelectShip"":""1"",""improbClassSelectDog"":""1"",""improbClassSelectCat"":""1"",""improbClassSelectAirplane"":""1"",""improbClassSelectTruck"":""1"",""improbClassSelectDeer"":""1""}",cifar10_train_2918_Bird.png,spec_conf,Bird,2918.0
24,survey-html-form,24,887477,jc93bl6n96s9etn,62bda645663933726fde6a37,21,52181.09999999404,,"{""classSelect"":""mostProbAutomobile"",""prob"":""75"",""classSelect2"":""secondProbTruck"",""prob2"":""25"",""improbClassSelectFrog"":""1"",""improbClassSelectHorse"":""1"",""improbClassSelectShip"":""1"",""improbClassSelectDog"":""1"",""improbClassSelectBird"":""1"",""improbClassSelectCat"":""1"",""improbClassSelectAirplane"":""1"",""improbClassSelectDeer"":""1""}",cifar10_train_4550_Truck.png,spec_conf,Truck,4550.0
25,survey-html-form,25,918087,jc93bl6n96s9etn,62bda645663933726fde6a37,21,30604.39999999851,,"{""classSelect"":""mostProbAutomobile"",""prob"":""100"",""classSelect2"":""secondProbNo"",""prob2"":"""",""improbClassSelectFrog"":""1"",""improbClassSelectHorse"":""1"",""improbClassSelectShip"":""1"",""improbClassSelectDog"":""1"",""improbClassSelectBird"":""1"",""improbClassSelectCat"":""1"",""improbClassSelectAirplane"":""1"",""improbClassSelectTruck"":""1"",""improbClassSelectDeer"":""1""}",cifar10_train_9229_Automobile.png,spec_conf,Automobile,9229.0
26,survey-html-form,26,961591,jc93bl6n96s9etn,62bda645663933726fde6a37,21,43498.80000000447,,"{""classSelect"":""mostProbBird"",""prob"":""100"",""classSelect2"":""secondProbNo"",""prob2"":"""",""improbClassSelectFrog"":""1"",""improbClassSelectAutomobile"":""1"",""improbClassSelectHorse"":""1"",""improbClassSelectShip"":""1"",""improbClassSelectDog"":""1"",""improbClassSelectCat"":""1"",""improbClassSelectAirplane"":""1"",""improbClassSelectTruck"":""1"",""improbClassSelectDeer"":""1""}",cifar10_train_2769_Bird.png,spec_conf,Bird,2769.0
27,survey-html-form,27,1001478,jc93bl6n96s9etn,62bda645663933726fde6a37,21,39880.60000000149,,"{""classSelect"":""mostProbDeer"",""prob"":""100"",""classSelect2"":""secondProbNo"",""prob2"":"""",""improbClassSelectFrog"":""1"",""improbClassSelectAutomobile"":""1"",""improbClassSelectHorse"":""1"",""improbClassSelectShip"":""1"",""improbClassSelectDog"":""1"",""improbClassSelectBird"":""1"",""improbClassSelectCat"":""1"",""improbClassSelectAirplane"":""1"",""improbClassSelectTruck"":""1""}",cifar10_train_6661_Deer.png,spec_conf,Deer,6661.0
28,survey-html-form,28,1026679,jc93bl6n96s9etn,62bda645663933726fde6a37,21,25195.5,,"{""classSelect"":""mostProbFrog"",""prob"":""100"",""classSelect2"":""secondProbNo"",""prob2"":"""",""improbClassSelectAutomobile"":""1"",""improbClassSelectHorse"":""1"",""improbClassSelectShip"":""1"",""improbClassSelectDog"":""1"",""improbClassSelectBird"":""1"",""improbClassSelectCat"":""1"",""improbClassSelectAirplane"":""1"",""improbClassSelectTruck"":""1"",""improbClassSelectDeer"":""1""}",cifar10_train_9902_Frog.png,spec_conf,Frog,9902.0
29,survey-html-form,29,1057518,jc93bl6n96s9etn,62bda645663933726fde6a37,21,30833.0,,"{""classSelect"":""mostProbHorse"",""prob"":""100"",""classSelect2"":""secondProbNo"",""prob2"":"""",""improbClassSelectFrog"":""1"",""improbClassSelectAutomobile"":""1"",""improbClassSelectShip"":""1"",""improbClassSelectDog"":""1"",""improbClassSelectBird"":""1"",""improbClassSelectCat"":""1"",""improbClassSelectAirplane"":""1"",""improbClassSelectTruck"":""1"",""improbClassSelectDeer"":""1""}",cifar10_train_223_Deer.png,spec_conf,Deer,223.0
30,survey-html-form,30,1089985,jc93bl6n96s9etn,62bda645663933726fde6a37,21,32461.39999999851,,"{""classSelect"":""mostProbDeer"",""prob"":""85"",""classSelect2"":""secondProbHorse"",""prob2"":""15"",""improbClassSelectFrog"":""1"",""improbClassSelectAutomobile"":""1"",""improbClassSelectShip"":""1"",""improbClassSelectDog"":""1"",""improbClassSelectBird"":""1"",""improbClassSelectCat"":""1"",""improbClassSelectAirplane"":""1"",""improbClassSelectTruck"":""1""}",cifar10_train_2762_Deer.png,spec_conf,Deer,2762.0
31,survey-html-form,31,1137163,jc93bl6n96s9etn,62bda645663933726fde6a37,21,47173.09999999404,,"{""classSelect"":""mostProbFrog"",""prob"":""100"",""classSelect2"":""secondProbNo"",""prob2"":"""",""improbClassSelectAutomobile"":""1"",""improbClassSelectHorse"":""1"",""improbClassSelectShip"":""1"",""improbClassSelectDog"":""1"",""improbClassSelectBird"":""1"",""improbClassSelectCat"":""1"",""improbClassSelectAirplane"":""1"",""improbClassSelectTruck"":""1"",""improbClassSelectDeer"":""1""}",cifar10_train_9555_Deer.png,rerun_spec_conf,Deer,9555.0
32,survey-html-form,32,1160203,jc93bl6n96s9etn,62bda645663933726fde6a37,21,23022.60000000149,,"{""classSelect"":""mostProbBird"",""prob"":""100"",""classSelect2"":""secondProbNo"",""prob2"":"""",""improbClassSelectFrog"":""1"",""improbClassSelectAutomobile"":""1"",""improbClassSelectHorse"":""1"",""improbClassSelectShip"":""1"",""improbClassSelectDog"":""1"",""improbClassSelectCat"":""1"",""improbClassSelectAirplane"":""1"",""improbClassSelectTruck"":""1"",""improbClassSelectDeer"":""1""}",cifar10_train_2310_Frog.png,rerun_spec_conf,Frog,2310.0
33,survey-text,33,1297076,jc93bl6n96s9etn,62bda645663933726fde6a37,21,136828.8999999985,,"{""Q0"":""10"",""Q1"":""1"",""Q2"":""No."",""Q3"":""No."",""Q4"":""No."",""Q5"":""No.""}",,,,
34,pavlovia,0,1376,vtrn5nxg2l5ama3,62bcd9c5252778ec6c023802,8,,,,,,,
35,external-html,1,38068,vtrn5nxg2l5ama3,62bcd9c5252778ec6c023802,8,36534.80000000005,,,,,,
36,instructions,2,232122,vtrn5nxg2l5ama3,62bcd9c5252778ec6c023802,8,194052.19999999995,"[{""page_index"":0,""viewing_time"":15291.59999999986},{""page_index"":1,""viewing_time"":66997.1000000001},{""page_index"":2,""viewing_time"":13282.5},{""page_index"":3,""viewing_time"":20929.199999999953},{""page_index"":4,""viewing_time"":34036.30000000005},{""page_index"":5,""viewing_time"":14041.899999999907},{""page_index"":6,""viewing_time"":6655.700000000186},{""page_index"":7,""viewing_time"":16246},{""page_index"":8,""viewing_time"":6568.299999999814}]",,,,,
37,survey-multi-choice,3,248682,vtrn5nxg2l5ama3,62bcd9c5252778ec6c023802,8,16554.800000000047,,"{""Q0"":""The most likely category, or categories, of an image and the associated probability of the selected categories."",""Q1"":""100 crowdsourced workers.""}",,,,
38,instructions,4,255103,vtrn5nxg2l5ama3,62bcd9c5252778ec6c023802,8,6419.5,"[{""page_index"":0,""viewing_time"":6418.700000000186}]",,,,,
39,preload,5,256759,vtrn5nxg2l5ama3,62bcd9c5252778ec6c023802,8,,,,,,,
40,survey-html-form,6,356027,vtrn5nxg2l5ama3,62bcd9c5252778ec6c023802,8,99259.1000000001,,"{""classSelect"":""mostProbDeer"",""prob"":""0"",""classSelect2"":""secondProbNo"",""prob2"":"""",""improbClassSelectDeer"":""1"",""improbClassSelectShip"":""1"",""improbClassSelectTruck"":""1"",""improbClassSelectAutomobile"":""1"",""improbClassSelectBird"":""1"",""improbClassSelectHorse"":""1"",""improbClassSelectCat"":""1"",""improbClassSelectAirplane"":""1"",""improbClassSelectFrog"":""1"",""improbClassSelectDog"":""1""}",cifar10_train_6958_Horse.png,spec_conf,Horse,6958.0
41,survey-html-form,7,413795,vtrn5nxg2l5ama3,62bcd9c5252778ec6c023802,8,57753.0,,"{""classSelect"":""mostProbTruck"",""prob"":""100"",""classSelect2"":""secondProbNo"",""prob2"":"""",""improbClassSelectDeer"":""1"",""improbClassSelectShip"":""1"",""improbClassSelectAutomobile"":""1"",""improbClassSelectBird"":""1"",""improbClassSelectHorse"":""1"",""improbClassSelectCat"":""1"",""improbClassSelectAirplane"":""1"",""improbClassSelectFrog"":""1"",""improbClassSelectDog"":""1""}",cifar10_train_5563_Automobile.png,spec_conf,Automobile,5563.0
42,survey-html-form,8,443606,vtrn5nxg2l5ama3,62bcd9c5252778ec6c023802,8,29799.299999999814,,"{""classSelect"":""mostProbBird"",""prob"":""100"",""classSelect2"":""secondProbNo"",""prob2"":"""",""improbClassSelectDeer"":""1"",""improbClassSelectShip"":""1"",""improbClassSelectTruck"":""1"",""improbClassSelectAutomobile"":""1"",""improbClassSelectHorse"":""1"",""improbClassSelectCat"":""1"",""improbClassSelectAirplane"":""1"",""improbClassSelectFrog"":""1"",""improbClassSelectDog"":""1""}",cifar10_train_2659_Bird.png,spec_conf,Bird,2659.0
43,survey-html-form,9,531937,vtrn5nxg2l5ama3,62bcd9c5252778ec6c023802,8,88326.40000000014,,"{""classSelect"":""mostProbAirplane"",""prob"":""100"",""classSelect2"":""secondProbNo"",""prob2"":"""",""improbClassSelectDeer"":""1"",""improbClassSelectShip"":""1"",""improbClassSelectTruck"":""1"",""improbClassSelectAutomobile"":""1"",""improbClassSelectBird"":""1"",""improbClassSelectHorse"":""1"",""improbClassSelectCat"":""1"",""improbClassSelectFrog"":""1"",""improbClassSelectDog"":""1""}",cifar10_train_6334_Airplane.png,spec_conf,Airplane,6334.0
44,survey-html-form,10,557521,vtrn5nxg2l5ama3,62bcd9c5252778ec6c023802,8,25576.09999999986,,"{""classSelect"":""mostProbCat"",""prob"":""100"",""classSelect2"":""secondProbNo"",""prob2"":"""",""improbClassSelectDeer"":""1"",""improbClassSelectShip"":""1"",""improbClassSelectTruck"":""1"",""improbClassSelectAutomobile"":""1"",""improbClassSelectBird"":""1"",""improbClassSelectHorse"":""1"",""improbClassSelectAirplane"":""1"",""improbClassSelectFrog"":""1"",""improbClassSelectDog"":""1""}",cifar10_train_5991_Cat.png,spec_conf,Cat,5991.0
45,survey-html-form,11,588953,vtrn5nxg2l5ama3,62bcd9c5252778ec6c023802,8,31421.600000000093,,"{""classSelect"":""mostProbFrog"",""prob"":""100"",""classSelect2"":""secondProbNo"",""prob2"":"""",""improbClassSelectDeer"":""1"",""improbClassSelectShip"":""1"",""improbClassSelectTruck"":""1"",""improbClassSelectAutomobile"":""1"",""improbClassSelectBird"":""1"",""improbClassSelectHorse"":""1"",""improbClassSelectCat"":""1"",""improbClassSelectAirplane"":""1"",""improbClassSelectDog"":""1""}",cifar10_train_9569_Frog.png,spec_conf,Frog,9569.0
46,survey-html-form,12,621076,vtrn5nxg2l5ama3,62bcd9c5252778ec6c023802,8,32115.800000000047,,"{""classSelect"":""mostProbCat"",""prob"":""100"",""classSelect2"":""secondProbNo"",""prob2"":"""",""improbClassSelectDeer"":""1"",""improbClassSelectShip"":""1"",""improbClassSelectTruck"":""1"",""improbClassSelectAutomobile"":""1"",""improbClassSelectBird"":""1"",""improbClassSelectHorse"":""1"",""improbClassSelectAirplane"":""1"",""improbClassSelectFrog"":""1"",""improbClassSelectDog"":""1""}",cifar10_train_4765_Cat.png,spec_conf,Cat,4765.0
47,survey-html-form,13,647308,vtrn5nxg2l5ama3,62bcd9c5252778ec6c023802,8,26220.90000000014,,"{""classSelect"":""mostProbFrog"",""prob"":""100"",""classSelect2"":""secondProbNo"",""prob2"":"""",""improbClassSelectDeer"":""1"",""improbClassSelectShip"":""1"",""improbClassSelectTruck"":""1"",""improbClassSelectAutomobile"":""1"",""improbClassSelectBird"":""1"",""improbClassSelectHorse"":""1"",""improbClassSelectCat"":""1"",""improbClassSelectAirplane"":""1"",""improbClassSelectDog"":""1""}",cifar10_train_1211_Frog.png,spec_conf,Frog,1211.0
48,survey-html-form,14,683048,vtrn5nxg2l5ama3,62bcd9c5252778ec6c023802,8,35732.90000000014,,"{""classSelect"":""mostProbTruck"",""prob"":""100"",""classSelect2"":""secondProbNo"",""prob2"":"""",""improbClassSelectDeer"":""1"",""improbClassSelectShip"":""1"",""improbClassSelectBird"":""1"",""improbClassSelectHorse"":""1"",""improbClassSelectCat"":""1"",""improbClassSelectAirplane"":""1"",""improbClassSelectFrog"":""1"",""improbClassSelectDog"":""1""}",cifar10_train_2521_Truck.png,spec_conf,Truck,2521.0
49,survey-html-form,15,712346,vtrn5nxg2l5ama3,62bcd9c5252778ec6c023802,8,29287.0,,"{""classSelect"":""mostProbAutomobile"",""prob"":""100"",""classSelect2"":""secondProbNo"",""prob2"":"""",""improbClassSelectDeer"":""1"",""improbClassSelectShip"":""1"",""improbClassSelectBird"":""1"",""improbClassSelectHorse"":""1"",""improbClassSelectCat"":""1"",""improbClassSelectAirplane"":""1"",""improbClassSelectFrog"":""1"",""improbClassSelectDog"":""1""}",cifar10_train_4855_Automobile.png,spec_conf,Automobile,4855.0
50,survey-html-form,16,737077,vtrn5nxg2l5ama3,62bcd9c5252778ec6c023802,8,24716.799999999814,,"{""classSelect"":""mostProbBird"",""prob"":""100"",""classSelect2"":""secondProbNo"",""prob2"":"""",""improbClassSelectDeer"":""1"",""improbClassSelectShip"":""1"",""improbClassSelectTruck"":""1"",""improbClassSelectAutomobile"":""1"",""improbClassSelectHorse"":""1"",""improbClassSelectCat"":""1"",""improbClassSelectAirplane"":""1"",""improbClassSelectFrog"":""1"",""improbClassSelectDog"":""1""}",cifar10_train_5238_Bird.png,spec_conf,Bird,5238.0
51,survey-html-form,17,789497,vtrn5nxg2l5ama3,62bcd9c5252778ec6c023802,8,52408.0,,"{""classSelect"":""mostProbDeer"",""prob"":""50"",""classSelect2"":""secondProbHorse"",""prob2"":""50"",""improbClassSelectShip"":""1"",""improbClassSelectTruck"":""1"",""improbClassSelectAutomobile"":""1"",""improbClassSelectBird"":""1"",""improbClassSelectCat"":""1"",""improbClassSelectAirplane"":""1"",""improbClassSelectFrog"":""1"",""improbClassSelectDog"":""1""}",cifar10_train_165_Deer.png,spec_conf,Deer,165.0
52,survey-html-form,18,813245,vtrn5nxg2l5ama3,62bcd9c5252778ec6c023802,8,23742.30000000028,,"{""classSelect"":""mostProbDog"",""prob"":""100"",""classSelect2"":""secondProbNo"",""prob2"":"""",""improbClassSelectDeer"":""1"",""improbClassSelectShip"":""1"",""improbClassSelectTruck"":""1"",""improbClassSelectAutomobile"":""1"",""improbClassSelectBird"":""1"",""improbClassSelectHorse"":""1"",""improbClassSelectCat"":""1"",""improbClassSelectAirplane"":""1"",""improbClassSelectFrog"":""1""}",cifar10_train_3192_Dog.png,spec_conf,Dog,3192.0
53,survey-html-form,19,862499,vtrn5nxg2l5ama3,62bcd9c5252778ec6c023802,8,49247.19999999972,,"{""classSelect"":""mostProbCat"",""prob"":""100"",""classSelect2"":""secondProbNo"",""prob2"":"""",""improbClassSelectDeer"":""1"",""improbClassSelectShip"":""1"",""improbClassSelectTruck"":""1"",""improbClassSelectAutomobile"":""1"",""improbClassSelectBird"":""1"",""improbClassSelectHorse"":""1"",""improbClassSelectAirplane"":""1"",""improbClassSelectFrog"":""1"",""improbClassSelectDog"":""1""}",cifar10_train_9422_Cat.png,spec_conf,Cat,9422.0
54,survey-html-form,20,884455,vtrn5nxg2l5ama3,62bcd9c5252778ec6c023802,8,21945.100000000093,,"{""classSelect"":""mostProbCat"",""prob"":""100"",""classSelect2"":""secondProbNo"",""prob2"":"""",""improbClassSelectDeer"":""1"",""improbClassSelectShip"":""1"",""improbClassSelectTruck"":""1"",""improbClassSelectAutomobile"":""1"",""improbClassSelectBird"":""1"",""improbClassSelectHorse"":""1"",""improbClassSelectAirplane"":""1"",""improbClassSelectFrog"":""1"",""improbClassSelectDog"":""1""}",cifar10_train_573_Cat.png,spec_conf,Cat,573.0
55,survey-html-form,21,909231,vtrn5nxg2l5ama3,62bcd9c5252778ec6c023802,8,24765.099999999627,,"{""classSelect"":""mostProbFrog"",""prob"":""100"",""classSelect2"":""secondProbNo"",""prob2"":"""",""improbClassSelectDeer"":""1"",""improbClassSelectShip"":""1"",""improbClassSelectTruck"":""1"",""improbClassSelectAutomobile"":""1"",""improbClassSelectBird"":""1"",""improbClassSelectHorse"":""1"",""improbClassSelectCat"":""1"",""improbClassSelectAirplane"":""1"",""improbClassSelectDog"":""1""}",cifar10_train_5717_Frog.png,spec_conf,Frog,5717.0
56,survey-html-form,22,953608,vtrn5nxg2l5ama3,62bcd9c5252778ec6c023802,8,44369.19999999972,,"{""classSelect"":""mostProbAirplane"",""prob"":""100"",""classSelect2"":""secondProbNo"",""prob2"":"""",""improbClassSelectDeer"":""1"",""improbClassSelectShip"":""1"",""improbClassSelectTruck"":""1"",""improbClassSelectAutomobile"":""1"",""improbClassSelectBird"":""1"",""improbClassSelectHorse"":""1"",""improbClassSelectCat"":""1"",""improbClassSelectFrog"":""1"",""improbClassSelectDog"":""1""}",cifar10_train_2594_Airplane.png,spec_conf,Airplane,2594.0
57,survey-html-form,23,976948,vtrn5nxg2l5ama3,62bcd9c5252778ec6c023802,8,23326.899999999907,,"{""classSelect"":""mostProbBird"",""prob"":""100"",""classSelect2"":""secondProbNo"",""prob2"":"""",""improbClassSelectDeer"":""1"",""improbClassSelectShip"":""1"",""improbClassSelectTruck"":""1"",""improbClassSelectAutomobile"":""1"",""improbClassSelectHorse"":""1"",""improbClassSelectCat"":""1"",""improbClassSelectAirplane"":""1"",""improbClassSelectFrog"":""1"",""improbClassSelectDog"":""1""}",cifar10_train_8765_Bird.png,spec_conf,Bird,8765.0
58,survey-html-form,24,999025,vtrn5nxg2l5ama3,62bcd9c5252778ec6c023802,8,22066.19999999972,,"{""classSelect"":""mostProbFrog"",""prob"":""100"",""classSelect2"":""secondProbNo"",""prob2"":"""",""improbClassSelectDeer"":""1"",""improbClassSelectShip"":""1"",""improbClassSelectTruck"":""1"",""improbClassSelectAutomobile"":""1"",""improbClassSelectBird"":""1"",""improbClassSelectHorse"":""1"",""improbClassSelectCat"":""1"",""improbClassSelectAirplane"":""1"",""improbClassSelectDog"":""1""}",cifar10_train_6088_Frog.png,spec_conf,Frog,6088.0
59,survey-html-form,25,1031515,vtrn5nxg2l5ama3,62bcd9c5252778ec6c023802,8,32485.5,,"{""classSelect"":""mostProbDog"",""prob"":""100"",""classSelect2"":""secondProbNo"",""prob2"":"""",""improbClassSelectDeer"":""1"",""improbClassSelectShip"":""1"",""improbClassSelectTruck"":""1"",""improbClassSelectAutomobile"":""1"",""improbClassSelectBird"":""1"",""improbClassSelectHorse"":""1"",""improbClassSelectCat"":""1"",""improbClassSelectAirplane"":""1"",""improbClassSelectFrog"":""1""}",cifar10_train_640_Dog.png,spec_conf,Dog,640.0
60,survey-html-form,26,1061455,vtrn5nxg2l5ama3,62bcd9c5252778ec6c023802,8,29936.399999999907,,"{""classSelect"":""mostProbAirplane"",""prob"":""100"",""classSelect2"":""secondProbNo"",""prob2"":"""",""improbClassSelectDeer"":""1"",""improbClassSelectShip"":""1"",""improbClassSelectTruck"":""1"",""improbClassSelectAutomobile"":""1"",""improbClassSelectBird"":""1"",""improbClassSelectHorse"":""1"",""improbClassSelectCat"":""1"",""improbClassSelectFrog"":""1"",""improbClassSelectDog"":""1""}",cifar10_train_154_Airplane.png,spec_conf,Airplane,154.0
61,survey-html-form,27,1087957,vtrn5nxg2l5ama3,62bcd9c5252778ec6c023802,8,26496.399999999907,,"{""classSelect"":""mostProbHorse"",""prob"":""100"",""classSelect2"":""secondProbNo"",""prob2"":"""",""improbClassSelectDeer"":""1"",""improbClassSelectShip"":""1"",""improbClassSelectTruck"":""1"",""improbClassSelectAutomobile"":""1"",""improbClassSelectBird"":""1"",""improbClassSelectCat"":""1"",""improbClassSelectAirplane"":""1"",""improbClassSelectFrog"":""1"",""improbClassSelectDog"":""1""}",cifar10_train_1250_Horse.png,spec_conf,Horse,1250.0
62,survey-html-form,28,1126614,vtrn5nxg2l5ama3,62bcd9c5252778ec6c023802,8,38646.700000000186,,"{""classSelect"":""mostProbDeer"",""prob"":""50"",""classSelect2"":""secondProbDeer"",""prob2"":""50"",""improbClassSelectShip"":""1"",""improbClassSelectTruck"":""1"",""improbClassSelectAutomobile"":""1"",""improbClassSelectBird"":""1"",""improbClassSelectHorse"":""1"",""improbClassSelectCat"":""1"",""improbClassSelectAirplane"":""1"",""improbClassSelectFrog"":""1"",""improbClassSelectDog"":""1""}",cifar10_train_682_Deer.png,spec_conf,Deer,682.0
63,survey-html-form,29,1157683,vtrn5nxg2l5ama3,62bcd9c5252778ec6c023802,8,31060.299999999814,,"{""classSelect"":""mostProbDog"",""prob"":""50"",""classSelect2"":""secondProbDog"",""prob2"":""50"",""improbClassSelectDeer"":""1"",""improbClassSelectShip"":""1"",""improbClassSelectTruck"":""1"",""improbClassSelectAutomobile"":""1"",""improbClassSelectBird"":""1"",""improbClassSelectHorse"":""1"",""improbClassSelectCat"":""1"",""improbClassSelectAirplane"":""1"",""improbClassSelectFrog"":""1""}",cifar10_train_9823_Dog.png,spec_conf,Dog,9823.0
64,survey-html-form,30,1178509,vtrn5nxg2l5ama3,62bcd9c5252778ec6c023802,8,20820.299999999814,,"{""classSelect"":""mostProbAirplane"",""prob"":""100"",""classSelect2"":""secondProbNo"",""prob2"":"""",""improbClassSelectDeer"":""1"",""improbClassSelectShip"":""1"",""improbClassSelectTruck"":""1"",""improbClassSelectAutomobile"":""1"",""improbClassSelectBird"":""1"",""improbClassSelectHorse"":""1"",""improbClassSelectCat"":""1"",""improbClassSelectFrog"":""1"",""improbClassSelectDog"":""1""}",cifar10_train_5809_Airplane.png,spec_conf,Airplane,5809.0
65,survey-html-form,31,1198271,vtrn5nxg2l5ama3,62bcd9c5252778ec6c023802,8,19750.299999999814,,"{""classSelect"":""mostProbFrog"",""prob"":""100"",""classSelect2"":""secondProbNo"",""prob2"":"""",""improbClassSelectDeer"":""1"",""improbClassSelectShip"":""1"",""improbClassSelectTruck"":""1"",""improbClassSelectAutomobile"":""1"",""improbClassSelectBird"":""1"",""improbClassSelectHorse"":""1"",""improbClassSelectCat"":""1"",""improbClassSelectAirplane"":""1"",""improbClassSelectDog"":""1""}",cifar10_train_9569_Frog.png,rerun_spec_conf,Frog,9569.0
66,survey-html-form,32,1227963,vtrn5nxg2l5ama3,62bcd9c5252778ec6c023802,8,29686.0,,"{""classSelect"":""mostProbBird"",""prob"":""100"",""classSelect2"":""secondProbNo"",""prob2"":"""",""improbClassSelectDeer"":""1"",""improbClassSelectShip"":""1"",""improbClassSelectTruck"":""1"",""improbClassSelectAutomobile"":""1"",""improbClassSelectHorse"":""1"",""improbClassSelectCat"":""1"",""improbClassSelectAirplane"":""1"",""improbClassSelectFrog"":""1"",""improbClassSelectDog"":""1""}",cifar10_train_5238_Bird.png,rerun_spec_conf,Bird,5238.0
67,survey-text,33,1277415,vtrn5nxg2l5ama3,62bcd9c5252778ec6c023802,8,49428.89999999991,,"{""Q0"":""yes"",""Q1"":""2"",""Q2"":""no"",""Q3"":""no"",""Q4"":""no"",""Q5"":""no""}",,,,
68,pavlovia,0,9251,wl8kzsocb4ffrr6,62bcd9c5252778ec6c023802,17,,,,,,,
69,external-html,1,31900,wl8kzsocb4ffrr6,62bcd9c5252778ec6c023802,17,22504.0,,,,,,
70,instructions,2,202404,wl8kzsocb4ffrr6,62bcd9c5252778ec6c023802,17,170502.0,"[{""page_index"":0,""viewing_time"":24701},{""page_index"":1,""viewing_time"":11144},{""page_index"":2,""viewing_time"":21576},{""page_index"":3,""viewing_time"":20913},{""page_index"":4,""viewing_time"":21640},{""page_index"":5,""viewing_time"":34928},{""page_index"":6,""viewing_time"":5536},{""page_index"":7,""viewing_time"":23960},{""page_index"":8,""viewing_time"":6104}]",,,,,
71,survey-multi-choice,3,212701,wl8kzsocb4ffrr6,62bcd9c5252778ec6c023802,17,10294.0,,"{""Q0"":""The most likely category, or categories, of an image and the associated probability of the selected categories."",""Q1"":""100 crowdsourced workers.""}",,,,
72,instructions,4,215500,wl8kzsocb4ffrr6,62bcd9c5252778ec6c023802,17,2799.0,"[{""page_index"":0,""viewing_time"":2799}]",,,,,
73,preload,5,217947,wl8kzsocb4ffrr6,62bcd9c5252778ec6c023802,17,,,,,,,
74,survey-html-form,6,301807,wl8kzsocb4ffrr6,62bcd9c5252778ec6c023802,17,83858.0,,"{""classSelect"":""mostProbBird"",""prob"":""100"",""classSelect2"":""secondProbNo"",""prob2"":"""",""improbClassSelectFrog"":""1"",""improbClassSelectShip"":""1"",""improbClassSelectAutomobile"":""1"",""improbClassSelectHorse"":""1"",""improbClassSelectTruck"":""1"",""improbClassSelectCat"":""1"",""improbClassSelectDog"":""1"",""improbClassSelectAirplane"":""1"",""improbClassSelectDeer"":""1""}",cifar10_train_497_Bird.png,spec_conf,Bird,497.0
75,survey-html-form,7,335967,wl8kzsocb4ffrr6,62bcd9c5252778ec6c023802,17,34156.0,,"{""classSelect"":""mostProbDog"",""prob"":""90"",""classSelect2"":""secondProbCat"",""prob2"":""10"",""improbClassSelectFrog"":""1"",""improbClassSelectShip"":""1"",""improbClassSelectAutomobile"":""1"",""improbClassSelectHorse"":""1"",""improbClassSelectTruck"":""1"",""improbClassSelectBird"":""1"",""improbClassSelectAirplane"":""1"",""improbClassSelectDeer"":""1""}",cifar10_train_4988_Dog.png,spec_conf,Dog,4988.0
76,survey-html-form,8,448144,wl8kzsocb4ffrr6,62bcd9c5252778ec6c023802,17,112174.0,,"{""classSelect"":""mostProbBird"",""prob"":""100"",""classSelect2"":""secondProbNo"",""prob2"":"""",""improbClassSelectFrog"":""1"",""improbClassSelectShip"":""1"",""improbClassSelectAutomobile"":""1"",""improbClassSelectHorse"":""1"",""improbClassSelectTruck"":""1"",""improbClassSelectCat"":""1"",""improbClassSelectDog"":""1"",""improbClassSelectAirplane"":""1"",""improbClassSelectDeer"":""1""}",cifar10_train_3791_Bird.png,spec_conf,Bird,3791.0
77,survey-html-form,9,490047,wl8kzsocb4ffrr6,62bcd9c5252778ec6c023802,17,41902.0,,"{""classSelect"":""mostProbAirplane"",""prob"":""100"",""classSelect2"":""secondProbNo"",""prob2"":"""",""improbClassSelectFrog"":""1"",""improbClassSelectShip"":""1"",""improbClassSelectAutomobile"":""1"",""improbClassSelectHorse"":""1"",""improbClassSelectTruck"":""1"",""improbClassSelectBird"":""1"",""improbClassSelectCat"":""1"",""improbClassSelectDog"":""1"",""improbClassSelectDeer"":""1""}",cifar10_train_6258_Airplane.png,spec_conf,Airplane,6258.0
78,survey-html-form,10,843114,wl8kzsocb4ffrr6,62bcd9c5252778ec6c023802,17,353064.0,,"{""classSelect"":""mostProbAutomobile"",""prob"":""100"",""classSelect2"":""secondProbNo"",""prob2"":"""",""improbClassSelectFrog"":""1"",""improbClassSelectShip"":""1"",""improbClassSelectHorse"":""1"",""improbClassSelectTruck"":""1"",""improbClassSelectBird"":""1"",""improbClassSelectCat"":""1"",""improbClassSelectDog"":""1"",""improbClassSelectAirplane"":""1"",""improbClassSelectDeer"":""1""}",cifar10_train_2112_Automobile.png,spec_conf,Automobile,2112.0
79,survey-html-form,11,858946,wl8kzsocb4ffrr6,62bcd9c5252778ec6c023802,17,15829.0,,"{""classSelect"":""mostProbFrog"",""prob"":""100"",""classSelect2"":""secondProbNo"",""prob2"":"""",""improbClassSelectShip"":""1"",""improbClassSelectAutomobile"":""1"",""improbClassSelectHorse"":""1"",""improbClassSelectTruck"":""1"",""improbClassSelectBird"":""1"",""improbClassSelectCat"":""1"",""improbClassSelectDog"":""1"",""improbClassSelectAirplane"":""1"",""improbClassSelectDeer"":""1""}",cifar10_train_4423_Frog.png,spec_conf,Frog,4423.0
80,survey-html-form,12,879163,wl8kzsocb4ffrr6,62bcd9c5252778ec6c023802,17,20213.0,,"{""classSelect"":""mostProbAirplane"",""prob"":""99"",""classSelect2"":""secondProbAutomobile"",""prob2"":""1"",""improbClassSelectFrog"":""1"",""improbClassSelectShip"":""1"",""improbClassSelectHorse"":""1"",""improbClassSelectTruck"":""1"",""improbClassSelectBird"":""1"",""improbClassSelectCat"":""1"",""improbClassSelectDog"":""1"",""improbClassSelectDeer"":""1""}",cifar10_train_284_Airplane.png,spec_conf,Airplane,284.0
81,survey-html-form,13,898475,wl8kzsocb4ffrr6,62bcd9c5252778ec6c023802,17,19309.0,,"{""classSelect"":""mostProbAirplane"",""prob"":""99"",""classSelect2"":""secondProbAutomobile"",""prob2"":""1"",""improbClassSelectFrog"":""1"",""improbClassSelectShip"":""1"",""improbClassSelectHorse"":""1"",""improbClassSelectTruck"":""1"",""improbClassSelectBird"":""1"",""improbClassSelectCat"":""1"",""improbClassSelectDog"":""1"",""improbClassSelectDeer"":""1""}",cifar10_train_3336_Airplane.png,spec_conf,Airplane,3336.0
82,survey-html-form,14,919131,wl8kzsocb4ffrr6,62bcd9c5252778ec6c023802,17,20653.0,,"{""classSelect"":""mostProbCat"",""prob"":""90"",""classSelect2"":""secondProbDog"",""prob2"":""10"",""improbClassSelectFrog"":""1"",""improbClassSelectShip"":""1"",""improbClassSelectAutomobile"":""1"",""improbClassSelectHorse"":""1"",""improbClassSelectTruck"":""1"",""improbClassSelectBird"":""1"",""improbClassSelectAirplane"":""1"",""improbClassSelectDeer"":""1""}",cifar10_train_9277_Cat.png,spec_conf,Cat,9277.0
83,survey-html-form,15,932467,wl8kzsocb4ffrr6,62bcd9c5252778ec6c023802,17,13332.0,,"{""classSelect"":""mostProbAirplane"",""prob"":""100"",""classSelect2"":""secondProbNo"",""prob2"":"""",""improbClassSelectFrog"":""1"",""improbClassSelectShip"":""1"",""improbClassSelectAutomobile"":""1"",""improbClassSelectHorse"":""1"",""improbClassSelectTruck"":""1"",""improbClassSelectBird"":""1"",""improbClassSelectCat"":""1"",""improbClassSelectDog"":""1"",""improbClassSelectDeer"":""1""}",cifar10_train_2958_Airplane.png,spec_conf,Airplane,2958.0
84,survey-html-form,16,962332,wl8kzsocb4ffrr6,62bcd9c5252778ec6c023802,17,29862.0,,"{""classSelect"":""mostProbBird"",""prob"":""100"",""classSelect2"":""secondProbNo"",""prob2"":"""",""improbClassSelectFrog"":""1"",""improbClassSelectShip"":""1"",""improbClassSelectAutomobile"":""1"",""improbClassSelectHorse"":""1"",""improbClassSelectTruck"":""1"",""improbClassSelectCat"":""1"",""improbClassSelectDog"":""1"",""improbClassSelectAirplane"":""1"",""improbClassSelectDeer"":""1""}",cifar10_train_7875_Bird.png,spec_conf,Bird,7875.0
85,survey-html-form,17,988235,wl8kzsocb4ffrr6,62bcd9c5252778ec6c023802,17,25901.0,,"{""classSelect"":""mostProbCat"",""prob"":""90"",""classSelect2"":""secondProbDog"",""prob2"":""10"",""improbClassSelectFrog"":""1"",""improbClassSelectShip"":""1"",""improbClassSelectAutomobile"":""1"",""improbClassSelectHorse"":""1"",""improbClassSelectTruck"":""1"",""improbClassSelectBird"":""1"",""improbClassSelectAirplane"":""1"",""improbClassSelectDeer"":""1""}",cifar10_train_6393_Cat.png,spec_conf,Cat,6393.0
86,survey-html-form,18,1022476,wl8kzsocb4ffrr6,62bcd9c5252778ec6c023802,17,34237.0,,"{""classSelect"":""mostProbTruck"",""prob"":""60"",""classSelect2"":""secondProbAutomobile"",""prob2"":""40"",""improbClassSelectFrog"":""1"",""improbClassSelectShip"":""1"",""improbClassSelectHorse"":""1"",""improbClassSelectBird"":""1"",""improbClassSelectCat"":""1"",""improbClassSelectDog"":""1"",""improbClassSelectAirplane"":""1"",""improbClassSelectDeer"":""1""}",cifar10_train_8153_Deer.png,spec_conf,Deer,8153.0
87,survey-html-form,19,1039867,wl8kzsocb4ffrr6,62bcd9c5252778ec6c023802,17,17388.0,,"{""classSelect"":""mostProbAutomobile"",""prob"":""100"",""classSelect2"":""secondProbNo"",""prob2"":"""",""improbClassSelectFrog"":""1"",""improbClassSelectShip"":""1"",""improbClassSelectHorse"":""1"",""improbClassSelectTruck"":""1"",""improbClassSelectBird"":""1"",""improbClassSelectCat"":""1"",""improbClassSelectDog"":""1"",""improbClassSelectAirplane"":""1"",""improbClassSelectDeer"":""1""}",cifar10_train_1206_Automobile.png,spec_conf,Automobile,1206.0
88,survey-html-form,20,1063644,wl8kzsocb4ffrr6,62bcd9c5252778ec6c023802,17,23773.0,,"{""classSelect"":""mostProbCat"",""prob"":""100"",""classSelect2"":""secondProbNo"",""prob2"":"""",""improbClassSelectFrog"":""1"",""improbClassSelectShip"":""1"",""improbClassSelectAutomobile"":""1"",""improbClassSelectHorse"":""1"",""improbClassSelectTruck"":""1"",""improbClassSelectBird"":""1"",""improbClassSelectDog"":""1"",""improbClassSelectAirplane"":""1"",""improbClassSelectDeer"":""1""}",cifar10_train_6079_Cat.png,spec_conf,Cat,6079.0
89,survey-html-form,21,1086292,wl8kzsocb4ffrr6,62bcd9c5252778ec6c023802,17,22647.0,,"{""classSelect"":""mostProbBird"",""prob"":""100"",""classSelect2"":""secondProbNo"",""prob2"":"""",""improbClassSelectFrog"":""1"",""improbClassSelectShip"":""1"",""improbClassSelectAutomobile"":""1"",""improbClassSelectHorse"":""1"",""improbClassSelectTruck"":""1"",""improbClassSelectCat"":""1"",""improbClassSelectDog"":""1"",""improbClassSelectAirplane"":""1"",""improbClassSelectDeer"":""1""}",cifar10_train_3907_Bird.png,spec_conf,Bird,3907.0
90,survey-html-form,22,1115708,wl8kzsocb4ffrr6,62bcd9c5252778ec6c023802,17,29414.0,,"{""classSelect"":""mostProbHorse"",""prob"":""100"",""classSelect2"":""secondProbNo"",""prob2"":"""",""improbClassSelectFrog"":""1"",""improbClassSelectShip"":""1"",""improbClassSelectAutomobile"":""1"",""improbClassSelectTruck"":""1"",""improbClassSelectBird"":""1"",""improbClassSelectCat"":""1"",""improbClassSelectDog"":""1"",""improbClassSelectAirplane"":""1"",""improbClassSelectDeer"":""1""}",cifar10_train_5227_Deer.png,spec_conf,Deer,5227.0
91,survey-html-form,23,1130252,wl8kzsocb4ffrr6,62bcd9c5252778ec6c023802,17,14541.0,,"{""classSelect"":""mostProbAirplane"",""prob"":""100"",""classSelect2"":""secondProbNo"",""prob2"":"""",""improbClassSelectFrog"":""1"",""improbClassSelectShip"":""1"",""improbClassSelectAutomobile"":""1"",""improbClassSelectHorse"":""1"",""improbClassSelectTruck"":""1"",""improbClassSelectBird"":""1"",""improbClassSelectCat"":""1"",""improbClassSelectDog"":""1"",""improbClassSelectDeer"":""1""}",cifar10_train_1573_Airplane.png,spec_conf,Airplane,1573.0
92,survey-html-form,24,1155237,wl8kzsocb4ffrr6,62bcd9c5252778ec6c023802,17,24981.0,,"{""classSelect"":""mostProbBird"",""prob"":""100"",""classSelect2"":""secondProbNo"",""prob2"":"""",""improbClassSelectFrog"":""1"",""improbClassSelectShip"":""1"",""improbClassSelectAutomobile"":""1"",""improbClassSelectHorse"":""1"",""improbClassSelectTruck"":""1"",""improbClassSelectCat"":""1"",""improbClassSelectDog"":""1"",""improbClassSelectAirplane"":""1"",""improbClassSelectDeer"":""1""}",cifar10_train_4221_Bird.png,spec_conf,Bird,4221.0
93,survey-html-form,25,1198589,wl8kzsocb4ffrr6,62bcd9c5252778ec6c023802,17,43349.0,,"{""classSelect"":""mostProbAutomobile"",""prob"":""100"",""classSelect2"":""secondProbNo"",""prob2"":"""",""improbClassSelectFrog"":""1"",""improbClassSelectShip"":""1"",""improbClassSelectHorse"":""1"",""improbClassSelectTruck"":""1"",""improbClassSelectBird"":""1"",""improbClassSelectCat"":""1"",""improbClassSelectDog"":""1"",""improbClassSelectAirplane"":""1"",""improbClassSelectDeer"":""1""}",cifar10_train_1313_Automobile.png,spec_conf,Automobile,1313.0
94,survey-html-form,26,1218805,wl8kzsocb4ffrr6,62bcd9c5252778ec6c023802,17,20213.0,,"{""classSelect"":""mostProbDeer"",""prob"":""99"",""classSelect2"":""secondProbHorse"",""prob2"":""1"",""improbClassSelectFrog"":""1"",""improbClassSelectShip"":""1"",""improbClassSelectAutomobile"":""1"",""improbClassSelectTruck"":""1"",""improbClassSelectBird"":""1"",""improbClassSelectCat"":""1"",""improbClassSelectDog"":""1"",""improbClassSelectAirplane"":""1""}",cifar10_train_1858_Deer.png,spec_conf,Deer,1858.0
95,survey-html-form,27,1291877,wl8kzsocb4ffrr6,62bcd9c5252778ec6c023802,17,73070.0,,"{""classSelect"":""mostProbCat"",""prob"":""100"",""classSelect2"":""secondProbNo"",""prob2"":"""",""improbClassSelectFrog"":""1"",""improbClassSelectShip"":""1"",""improbClassSelectAutomobile"":""1"",""improbClassSelectHorse"":""1"",""improbClassSelectTruck"":""1"",""improbClassSelectBird"":""1"",""improbClassSelectDog"":""1"",""improbClassSelectAirplane"":""1"",""improbClassSelectDeer"":""1""}",cifar10_train_9316_Cat.png,spec_conf,Cat,9316.0
96,survey-html-form,28,1303766,wl8kzsocb4ffrr6,62bcd9c5252778ec6c023802,17,11884.0,,"{""classSelect"":""mostProbAutomobile"",""prob"":""100"",""classSelect2"":""secondProbNo"",""prob2"":"""",""improbClassSelectFrog"":""1"",""improbClassSelectShip"":""1"",""improbClassSelectHorse"":""1"",""improbClassSelectTruck"":""1"",""improbClassSelectBird"":""1"",""improbClassSelectCat"":""1"",""improbClassSelectDog"":""1"",""improbClassSelectAirplane"":""1"",""improbClassSelectDeer"":""1""}",cifar10_train_1633_Automobile.png,spec_conf,Automobile,1633.0
97,survey-html-form,29,1356855,wl8kzsocb4ffrr6,62bcd9c5252778ec6c023802,17,53085.0,,"{""classSelect"":""mostProbCat"",""prob"":""60"",""classSelect2"":""secondProbDog"",""prob2"":""40"",""improbClassSelectFrog"":""1"",""improbClassSelectShip"":""1"",""improbClassSelectAutomobile"":""1"",""improbClassSelectHorse"":""1"",""improbClassSelectTruck"":""1"",""improbClassSelectBird"":""1"",""improbClassSelectAirplane"":""1"",""improbClassSelectDeer"":""1""}",cifar10_train_6900_Cat.png,spec_conf,Cat,6900.0
98,survey-html-form,30,1384158,wl8kzsocb4ffrr6,62bcd9c5252778ec6c023802,17,27301.0,,"{""classSelect"":""mostProbAirplane"",""prob"":""90"",""classSelect2"":""secondProbBird"",""prob2"":""10"",""improbClassSelectFrog"":""1"",""improbClassSelectShip"":""1"",""improbClassSelectAutomobile"":""1"",""improbClassSelectHorse"":""1"",""improbClassSelectTruck"":""1"",""improbClassSelectCat"":""1"",""improbClassSelectDog"":""1"",""improbClassSelectDeer"":""1""}",cifar10_train_2041_Airplane.png,spec_conf,Airplane,2041.0
99,survey-html-form,31,1401238,wl8kzsocb4ffrr6,62bcd9c5252778ec6c023802,17,17077.0,,"{""classSelect"":""mostProbFrog"",""prob"":""100"",""classSelect2"":""secondProbNo"",""prob2"":"""",""improbClassSelectShip"":""1"",""improbClassSelectAutomobile"":""1"",""improbClassSelectHorse"":""1"",""improbClassSelectTruck"":""1"",""improbClassSelectBird"":""1"",""improbClassSelectCat"":""1"",""improbClassSelectDog"":""1"",""improbClassSelectAirplane"":""1"",""improbClassSelectDeer"":""1""}",cifar10_train_4423_Frog.png,rerun_spec_conf,Frog,4423.0
100,survey-html-form,32,1423719,wl8kzsocb4ffrr6,62bcd9c5252778ec6c023802,17,22476.0,,"{""classSelect"":""mostProbBird"",""prob"":""100"",""classSelect2"":""secondProbNo"",""prob2"":"""",""improbClassSelectFrog"":""1"",""improbClassSelectShip"":""1"",""improbClassSelectAutomobile"":""1"",""improbClassSelectHorse"":""1"",""improbClassSelectTruck"":""1"",""improbClassSelectCat"":""1"",""improbClassSelectDog"":""1"",""improbClassSelectAirplane"":""1"",""improbClassSelectDeer"":""1""}",cifar10_train_7875_Bird.png,rerun_spec_conf,Bird,7875.0
101,survey-text,33,1479078,wl8kzsocb4ffrr6,62bcd9c5252778ec6c023802,17,55350.0,,"{""Q0"":""10"",""Q1"":""1"",""Q2"":""Nothing in particular, just my common knowledge."",""Q3"":""No. Never."",""Q4"":""Nothing in particular."",""Q5"":""No issues. Great experiment!""}",,,,
102,pavlovia,0,57918,1ov4y85twtz9mlu,62bcd9c5252778ec6c023802,5,,,,,,,
103,external-html,1,265742,1ov4y85twtz9mlu,62bcd9c5252778ec6c023802,5,207675.0,,,,,,
104,instructions,2,1044522,1ov4y85twtz9mlu,62bcd9c5252778ec6c023802,5,778780.5,"[{""page_index"":0,""viewing_time"":495136.2999999998},{""page_index"":1,""viewing_time"":20651.900000000373},{""page_index"":2,""viewing_time"":18744.799999999814},{""page_index"":3,""viewing_time"":21611},{""page_index"":4,""viewing_time"":36122.799999999814},{""page_index"":5,""viewing_time"":21758.799999999814},{""page_index"":6,""viewing_time"":6736},{""page_index"":7,""viewing_time"":152846.5},{""page_index"":8,""viewing_time"":5172}]",,,,,
105,survey-multi-choice,3,1060096,1ov4y85twtz9mlu,62bcd9c5252778ec6c023802,5,15573.000000000931,,"{""Q0"":""The most likely category, or categories, of an image and the associated probability of the selected categories."",""Q1"":""100 crowdsourced workers.""}",,,,
106,instructions,4,1066413,1ov4y85twtz9mlu,62bcd9c5252778ec6c023802,5,6315.599999999628,"[{""page_index"":0,""viewing_time"":6315.5}]",,,,,
107,preload,5,1068127,1ov4y85twtz9mlu,62bcd9c5252778ec6c023802,5,,,,,,,
108,survey-html-form,6,1126751,1ov4y85twtz9mlu,62bcd9c5252778ec6c023802,5,58622.0,,"{""classSelect"":""mostProbBird"",""prob"":""100"",""classSelect2"":""secondProbNo"",""prob2"":"""",""improbClassSelectCat"":""1"",""improbClassSelectDog"":""1"",""improbClassSelectDeer"":""1"",""improbClassSelectFrog"":""1"",""improbClassSelectAutomobile"":""1"",""improbClassSelectAirplane"":""1"",""improbClassSelectHorse"":""1"",""improbClassSelectTruck"":""1"",""improbClassSelectShip"":""1""}",cifar10_train_2423_Bird.png,spec_conf,Bird,2423.0
109,survey-html-form,7,1207129,1ov4y85twtz9mlu,62bcd9c5252778ec6c023802,5,80376.19999999925,,"{""classSelect"":""mostProbBird"",""prob"":""100"",""classSelect2"":""secondProbNo"",""prob2"":"""",""improbClassSelectCat"":""1"",""improbClassSelectDog"":""1"",""improbClassSelectDeer"":""1"",""improbClassSelectFrog"":""1"",""improbClassSelectAutomobile"":""1"",""improbClassSelectAirplane"":""1"",""improbClassSelectHorse"":""1"",""improbClassSelectTruck"":""1"",""improbClassSelectShip"":""1""}",cifar10_train_1673_Bird.png,spec_conf,Bird,1673.0
110,survey-html-form,8,1264613,1ov4y85twtz9mlu,62bcd9c5252778ec6c023802,5,57482.59999999963,,"{""classSelect"":""mostProbDog"",""prob"":""100"",""classSelect2"":""secondProbCat"",""prob2"":""20"",""improbClassSelectDeer"":""1"",""improbClassSelectFrog"":""1"",""improbClassSelectAutomobile"":""1"",""improbClassSelectAirplane"":""1"",""improbClassSelectHorse"":""1"",""improbClassSelectBird"":""1"",""improbClassSelectTruck"":""1"",""improbClassSelectShip"":""1""}",cifar10_train_1518_Cat.png,spec_conf,Cat,1518.0
111,survey-html-form,9,1584649,1ov4y85twtz9mlu,62bcd9c5252778ec6c023802,5,320034.80000000075,,"{""classSelect"":""mostProbShip"",""prob"":""90"",""classSelect2"":""secondProbNo"",""prob2"":"""",""improbClassSelectCat"":""1"",""improbClassSelectDog"":""1"",""improbClassSelectDeer"":""1"",""improbClassSelectFrog"":""1"",""improbClassSelectAutomobile"":""1"",""improbClassSelectAirplane"":""1"",""improbClassSelectHorse"":""1"",""improbClassSelectBird"":""1"",""improbClassSelectTruck"":""1""}",cifar10_train_5621_Ship.png,spec_conf,Ship,5621.0
112,survey-html-form,10,1628644,1ov4y85twtz9mlu,62bcd9c5252778ec6c023802,5,43993.20000000112,,"{""classSelect"":""mostProbAirplane"",""prob"":""100"",""classSelect2"":""secondProbNo"",""prob2"":"""",""improbClassSelectCat"":""1"",""improbClassSelectDog"":""1"",""improbClassSelectDeer"":""1"",""improbClassSelectFrog"":""1"",""improbClassSelectAutomobile"":""1"",""improbClassSelectHorse"":""1"",""improbClassSelectBird"":""1"",""improbClassSelectTruck"":""1"",""improbClassSelectShip"":""1""}",cifar10_train_9957_Airplane.png,spec_conf,Airplane,9957.0
113,survey-html-form,11,1655513,1ov4y85twtz9mlu,62bcd9c5252778ec6c023802,5,26868.400000000373,,"{""classSelect"":""mostProbBird"",""prob"":""100"",""classSelect2"":""secondProbNo"",""prob2"":"""",""improbClassSelectCat"":""1"",""improbClassSelectDog"":""1"",""improbClassSelectDeer"":""1"",""improbClassSelectFrog"":""1"",""improbClassSelectAutomobile"":""1"",""improbClassSelectAirplane"":""1"",""improbClassSelectHorse"":""1"",""improbClassSelectTruck"":""1"",""improbClassSelectShip"":""1""}",cifar10_train_409_Bird.png,spec_conf,Bird,409.0
114,survey-html-form,12,1904349,1ov4y85twtz9mlu,62bcd9c5252778ec6c023802,5,248834.0,,"{""classSelect"":""mostProbDeer"",""prob"":""80"",""classSelect2"":""secondProbHorse"",""prob2"":""30"",""improbClassSelectCat"":""1"",""improbClassSelectDog"":""1"",""improbClassSelectFrog"":""1"",""improbClassSelectAutomobile"":""1"",""improbClassSelectAirplane"":""1"",""improbClassSelectBird"":""1"",""improbClassSelectTruck"":""1"",""improbClassSelectShip"":""1""}",cifar10_train_5539_Deer.png,spec_conf,Deer,5539.0
115,survey-html-form,13,1990457,1ov4y85twtz9mlu,62bcd9c5252778ec6c023802,5,86105.59999999963,,"{""classSelect"":""mostProbDog"",""prob"":""70"",""classSelect2"":""secondProbHorse"",""prob2"":""40"",""improbClassSelectDeer"":""1"",""improbClassSelectFrog"":""1"",""improbClassSelectAutomobile"":""1"",""improbClassSelectAirplane"":""1"",""improbClassSelectBird"":""1"",""improbClassSelectTruck"":""1"",""improbClassSelectShip"":""1""}",cifar10_train_7288_Horse.png,spec_conf,Horse,7288.0
116,survey-html-form,14,2020303,1ov4y85twtz9mlu,62bcd9c5252778ec6c023802,5,29845.39999999851,,"{""classSelect"":""mostProbFrog"",""prob"":""100"",""classSelect2"":""secondProbNo"",""prob2"":"""",""improbClassSelectCat"":""1"",""improbClassSelectDog"":""1"",""improbClassSelectDeer"":""1"",""improbClassSelectAutomobile"":""1"",""improbClassSelectAirplane"":""1"",""improbClassSelectHorse"":""1"",""improbClassSelectBird"":""1"",""improbClassSelectTruck"":""1"",""improbClassSelectShip"":""1""}",cifar10_train_3442_Frog.png,spec_conf,Frog,3442.0
117,survey-html-form,15,2354684,1ov4y85twtz9mlu,62bcd9c5252778ec6c023802,5,334379.5999999996,,"{""classSelect"":""mostProbDeer"",""prob"":""80"",""classSelect2"":""secondProbDog"",""prob2"":""20"",""improbClassSelectCat"":""1"",""improbClassSelectFrog"":""1"",""improbClassSelectAutomobile"":""1"",""improbClassSelectAirplane"":""1"",""improbClassSelectHorse"":""1"",""improbClassSelectBird"":""1"",""improbClassSelectTruck"":""1"",""improbClassSelectShip"":""1""}",cifar10_train_6853_Deer.png,spec_conf,Deer,6853.0
118,survey-html-form,16,2405917,1ov4y85twtz9mlu,62bcd9c5252778ec6c023802,5,51231.0,,"{""classSelect"":""mostProbDeer"",""prob"":""80"",""classSelect2"":""secondProbNo"",""prob2"":"""",""improbClassSelectCat"":""1"",""improbClassSelectDog"":""1"",""improbClassSelectFrog"":""1"",""improbClassSelectAutomobile"":""1"",""improbClassSelectAirplane"":""1"",""improbClassSelectHorse"":""1"",""improbClassSelectBird"":""1"",""improbClassSelectTruck"":""1"",""improbClassSelectShip"":""1""}",cifar10_train_3222_Deer.png,spec_conf,Deer,3222.0
119,survey-html-form,17,2683558,1ov4y85twtz9mlu,62bcd9c5252778ec6c023802,5,277639.5999999996,,"{""classSelect"":""mostProbDog"",""prob"":""80"",""classSelect2"":""secondProbCat"",""prob2"":""40"",""improbClassSelectDeer"":""1"",""improbClassSelectFrog"":""1"",""improbClassSelectAutomobile"":""1"",""improbClassSelectAirplane"":""1"",""improbClassSelectHorse"":""1"",""improbClassSelectBird"":""1"",""improbClassSelectTruck"":""1"",""improbClassSelectShip"":""1""}",cifar10_train_910_Dog.png,spec_conf,Dog,910.0
120,survey-html-form,18,2709629,1ov4y85twtz9mlu,62bcd9c5252778ec6c023802,5,26070.10000000149,,"{""classSelect"":""mostProbCat"",""prob"":""100"",""classSelect2"":""secondProbNo"",""prob2"":"""",""improbClassSelectDog"":""1"",""improbClassSelectDeer"":""1"",""improbClassSelectFrog"":""1"",""improbClassSelectAutomobile"":""1"",""improbClassSelectAirplane"":""1"",""improbClassSelectHorse"":""1"",""improbClassSelectBird"":""1"",""improbClassSelectTruck"":""1"",""improbClassSelectShip"":""1""}",cifar10_train_1606_Cat.png,spec_conf,Cat,1606.0
121,survey-html-form,19,2748419,1ov4y85twtz9mlu,62bcd9c5252778ec6c023802,5,38788.699999999255,,"{""classSelect"":""mostProbDog"",""prob"":""80"",""classSelect2"":""secondProbDeer"",""prob2"":""20"",""improbClassSelectCat"":""1"",""improbClassSelectFrog"":""1"",""improbClassSelectAutomobile"":""1"",""improbClassSelectAirplane"":""1"",""improbClassSelectHorse"":""1"",""improbClassSelectBird"":""1"",""improbClassSelectTruck"":""1"",""improbClassSelectShip"":""1""}",cifar10_train_9036_Deer.png,spec_conf,Deer,9036.0
122,survey-html-form,20,2773109,1ov4y85twtz9mlu,62bcd9c5252778ec6c023802,5,24688.300000000745,,"{""classSelect"":""mostProbDeer"",""prob"":""70"",""classSelect2"":""secondProbHorse"",""prob2"":""25"",""improbClassSelectCat"":""1"",""improbClassSelectDog"":""1"",""improbClassSelectFrog"":""1"",""improbClassSelectAutomobile"":""1"",""improbClassSelectAirplane"":""1"",""improbClassSelectBird"":""1"",""improbClassSelectTruck"":""1"",""improbClassSelectShip"":""1""}",cifar10_train_2995_Deer.png,spec_conf,Deer,2995.0
123,survey-html-form,21,3005089,1ov4y85twtz9mlu,62bcd9c5252778ec6c023802,5,231978.59999999963,,"{""classSelect"":""mostProbCat"",""prob"":""100"",""classSelect2"":""secondProbNo"",""prob2"":"""",""improbClassSelectDog"":""1"",""improbClassSelectDeer"":""1"",""improbClassSelectFrog"":""1"",""improbClassSelectAutomobile"":""1"",""improbClassSelectAirplane"":""1"",""improbClassSelectHorse"":""1"",""improbClassSelectBird"":""1"",""improbClassSelectTruck"":""1"",""improbClassSelectShip"":""1""}",cifar10_train_1334_Cat.png,spec_conf,Cat,1334.0
124,survey-html-form,22,3045883,1ov4y85twtz9mlu,62bcd9c5252778ec6c023802,5,40792.40000000037,,"{""classSelect"":""mostProbCat"",""prob"":""70"",""classSelect2"":""secondProbDog"",""prob2"":""40"",""improbClassSelectDeer"":""1"",""improbClassSelectFrog"":""1"",""improbClassSelectAutomobile"":""1"",""improbClassSelectAirplane"":""1"",""improbClassSelectHorse"":""1"",""improbClassSelectBird"":""1"",""improbClassSelectTruck"":""1"",""improbClassSelectShip"":""1""}",cifar10_train_4414_Bird.png,spec_conf,Bird,4414.0
125,survey-html-form,23,3078618,1ov4y85twtz9mlu,62bcd9c5252778ec6c023802,5,32733.60000000149,,"{""classSelect"":""mostProbCat"",""prob"":""80"",""classSelect2"":""secondProbDog"",""prob2"":""60"",""improbClassSelectDeer"":""1"",""improbClassSelectFrog"":""1"",""improbClassSelectAutomobile"":""1"",""improbClassSelectAirplane"":""1"",""improbClassSelectHorse"":""1"",""improbClassSelectBird"":""1"",""improbClassSelectTruck"":""1"",""improbClassSelectShip"":""1""}",cifar10_train_863_Cat.png,spec_conf,Cat,863.0
126,survey-html-form,24,3109279,1ov4y85twtz9mlu,62bcd9c5252778ec6c023802,5,30660.300000000745,,"{""classSelect"":""mostProbAutomobile"",""prob"":""100"",""classSelect2"":""secondProbNo"",""prob2"":"""",""improbClassSelectCat"":""1"",""improbClassSelectDog"":""1"",""improbClassSelectDeer"":""1"",""improbClassSelectFrog"":""1"",""improbClassSelectAirplane"":""1"",""improbClassSelectHorse"":""1"",""improbClassSelectBird"":""1"",""improbClassSelectTruck"":""1"",""improbClassSelectShip"":""1""}",cifar10_train_9340_Automobile.png,spec_conf,Automobile,9340.0
127,survey-html-form,25,3152661,1ov4y85twtz9mlu,62bcd9c5252778ec6c023802,5,43380.39999999851,,"{""classSelect"":""mostProbAirplane"",""prob"":""100"",""classSelect2"":""secondProbBird"",""prob2"":""10"",""improbClassSelectCat"":""1"",""improbClassSelectDog"":""1"",""improbClassSelectDeer"":""1"",""improbClassSelectFrog"":""1"",""improbClassSelectAutomobile"":""1"",""improbClassSelectHorse"":""1"",""improbClassSelectTruck"":""1"",""improbClassSelectShip"":""1""}",cifar10_train_5649_Airplane.png,spec_conf,Airplane,5649.0
128,survey-html-form,26,3219822,1ov4y85twtz9mlu,62bcd9c5252778ec6c023802,5,67159.40000000037,,"{""classSelect"":""mostProbTruck"",""prob"":""80"",""classSelect2"":""secondProbAutomobile"",""prob2"":""30"",""improbClassSelectCat"":""1"",""improbClassSelectDog"":""1"",""improbClassSelectDeer"":""1"",""improbClassSelectFrog"":""1"",""improbClassSelectAirplane"":""1"",""improbClassSelectHorse"":""1"",""improbClassSelectBird"":""1"",""improbClassSelectShip"":""1""}",cifar10_train_645_Automobile.png,spec_conf,Automobile,645.0
129,survey-html-form,27,3481838,1ov4y85twtz9mlu,62bcd9c5252778ec6c023802,5,262014.30000000077,,"{""classSelect"":""mostProbDeer"",""prob"":""100"",""classSelect2"":""secondProbNo"",""prob2"":"""",""improbClassSelectCat"":""1"",""improbClassSelectDog"":""1"",""improbClassSelectFrog"":""1"",""improbClassSelectAutomobile"":""1"",""improbClassSelectAirplane"":""1"",""improbClassSelectHorse"":""1"",""improbClassSelectBird"":""1"",""improbClassSelectTruck"":""1"",""improbClassSelectShip"":""1""}",cifar10_train_3041_Deer.png,spec_conf,Deer,3041.0
130,survey-html-form,28,3503014,1ov4y85twtz9mlu,62bcd9c5252778ec6c023802,5,21174.5,,"{""classSelect"":""mostProbTruck"",""prob"":""100"",""classSelect2"":""secondProbNo"",""prob2"":"""",""improbClassSelectCat"":""1"",""improbClassSelectDog"":""1"",""improbClassSelectDeer"":""1"",""improbClassSelectFrog"":""1"",""improbClassSelectAutomobile"":""1"",""improbClassSelectAirplane"":""1"",""improbClassSelectHorse"":""1"",""improbClassSelectBird"":""1"",""improbClassSelectShip"":""1""}",cifar10_train_4678_Truck.png,spec_conf,Truck,4678.0
131,survey-html-form,29,3539276,1ov4y85twtz9mlu,62bcd9c5252778ec6c023802,5,36261.59999999963,,"{""classSelect"":""mostProbCat"",""prob"":""75"",""classSelect2"":""secondProbDog"",""prob2"":""45"",""improbClassSelectDeer"":""1"",""improbClassSelectFrog"":""1"",""improbClassSelectAutomobile"":""1"",""improbClassSelectAirplane"":""1"",""improbClassSelectHorse"":""1"",""improbClassSelectBird"":""1"",""improbClassSelectTruck"":""1"",""improbClassSelectShip"":""1""}",cifar10_train_5625_Dog.png,spec_conf,Dog,5625.0
132,survey-html-form,30,3595731,1ov4y85twtz9mlu,62bcd9c5252778ec6c023802,5,56452.5,,"{""classSelect"":""mostProbDeer"",""prob"":""75"",""classSelect2"":""secondProbHorse"",""prob2"":""35"",""improbClassSelectCat"":""1"",""improbClassSelectDog"":""1"",""improbClassSelectFrog"":""1"",""improbClassSelectAutomobile"":""1"",""improbClassSelectAirplane"":""1"",""improbClassSelectBird"":""1"",""improbClassSelectTruck"":""1"",""improbClassSelectShip"":""1""}",cifar10_train_4436_Deer.png,spec_conf,Deer,4436.0
133,survey-html-form,31,3618577,1ov4y85twtz9mlu,62bcd9c5252778ec6c023802,5,22844.0,,"{""classSelect"":""mostProbBird"",""prob"":""100"",""classSelect2"":""secondProbNo"",""prob2"":"""",""improbClassSelectCat"":""1"",""improbClassSelectDog"":""1"",""improbClassSelectDeer"":""1"",""improbClassSelectFrog"":""1"",""improbClassSelectAutomobile"":""1"",""improbClassSelectAirplane"":""1"",""improbClassSelectHorse"":""1"",""improbClassSelectTruck"":""1"",""improbClassSelectShip"":""1""}",cifar10_train_409_Bird.png,rerun_spec_conf,Bird,409.0
134,survey-html-form,32,3651784,1ov4y85twtz9mlu,62bcd9c5252778ec6c023802,5,33206.5,,"{""classSelect"":""mostProbDeer"",""prob"":""100"",""classSelect2"":""secondProbHorse"",""prob2"":""10"",""improbClassSelectCat"":""1"",""improbClassSelectDog"":""1"",""improbClassSelectFrog"":""1"",""improbClassSelectAutomobile"":""1"",""improbClassSelectAirplane"":""1"",""improbClassSelectBird"":""1"",""improbClassSelectTruck"":""1"",""improbClassSelectShip"":""1""}",cifar10_train_3222_Deer.png,rerun_spec_conf,Deer,3222.0
135,survey-text,33,3741457,1ov4y85twtz9mlu,62bcd9c5252778ec6c023802,5,89669.70000000112,,"{""Q0"":""10"",""Q1"":""6"",""Q2"":""Just how the image looked."",""Q3"":""No"",""Q4"":""Just the outlines of the subjects."",""Q5"":""""}",,,,
136,pavlovia,0,1563,z9wsmxlw09yulgw,62bcd9c5252778ec6c023802,20,,,,,,,
137,external-html,1,19227,z9wsmxlw09yulgw,62bcd9c5252778ec6c023802,20,17494.0,,,,,,
138,instructions,2,200125,z9wsmxlw09yulgw,62bcd9c5252778ec6c023802,20,180891.0,"[{""page_index"":0,""viewing_time"":20352},{""page_index"":1,""viewing_time"":7770},{""page_index"":2,""viewing_time"":20975},{""page_index"":3,""viewing_time"":23442},{""page_index"":4,""viewing_time"":53264},{""page_index"":5,""viewing_time"":33032},{""page_index"":6,""viewing_time"":5311},{""page_index"":7,""viewing_time"":11263},{""page_index"":8,""viewing_time"":5481}]",,,,,
139,survey-multi-choice,3,218473,z9wsmxlw09yulgw,62bcd9c5252778ec6c023802,20,18341.0,,"{""Q0"":""The most likely category, or categories, of an image and the associated probability of the selected categories."",""Q1"":""100 crowdsourced workers.""}",,,,
140,instructions,4,222931,z9wsmxlw09yulgw,62bcd9c5252778ec6c023802,20,4454.0,"[{""page_index"":0,""viewing_time"":4454}]",,,,,
141,preload,5,229443,z9wsmxlw09yulgw,62bcd9c5252778ec6c023802,20,,,,,,,
142,survey-html-form,6,342211,z9wsmxlw09yulgw,62bcd9c5252778ec6c023802,20,112756.0,,"{""classSelect"":""mostProbCat"",""prob"":""100"",""classSelect2"":""secondProbNo"",""prob2"":"""",""improbClassSelectAutomobile"":""1"",""improbClassSelectShip"":""1"",""improbClassSelectAirplane"":""1"",""improbClassSelectBird"":""1"",""improbClassSelectHorse"":""1"",""improbClassSelectTruck"":""1"",""improbClassSelectDog"":""1"",""improbClassSelectDeer"":""1"",""improbClassSelectFrog"":""1""}",cifar10_train_1813_Cat.png,spec_conf,Cat,1813.0
143,survey-html-form,7,380475,z9wsmxlw09yulgw,62bcd9c5252778ec6c023802,20,38250.0,,"{""classSelect"":""mostProbDeer"",""prob"":""100"",""classSelect2"":""secondProbNo"",""prob2"":"""",""improbClassSelectAutomobile"":""1"",""improbClassSelectShip"":""1"",""improbClassSelectAirplane"":""1"",""improbClassSelectCat"":""1"",""improbClassSelectBird"":""1"",""improbClassSelectHorse"":""1"",""improbClassSelectTruck"":""1"",""improbClassSelectDog"":""1"",""improbClassSelectFrog"":""1""}",cifar10_train_2120_Deer.png,spec_conf,Deer,2120.0
144,survey-html-form,8,431258,z9wsmxlw09yulgw,62bcd9c5252778ec6c023802,20,50771.0,,"{""classSelect"":""mostProbDeer"",""prob"":""100"",""classSelect2"":""secondProbNo"",""prob2"":"""",""improbClassSelectAutomobile"":""1"",""improbClassSelectShip"":""1"",""improbClassSelectAirplane"":""1"",""improbClassSelectCat"":""1"",""improbClassSelectBird"":""1"",""improbClassSelectHorse"":""1"",""improbClassSelectTruck"":""1"",""improbClassSelectDog"":""1"",""improbClassSelectFrog"":""1""}",cifar10_train_2229_Deer.png,spec_conf,Deer,2229.0
145,survey-html-form,9,529660,z9wsmxlw09yulgw,62bcd9c5252778ec6c023802,20,98392.0,,"{""classSelect"":""mostProbAirplane"",""prob"":""90"",""classSelect2"":""secondProbBird"",""prob2"":""10"",""improbClassSelectAutomobile"":""1"",""improbClassSelectShip"":""1"",""improbClassSelectCat"":""1"",""improbClassSelectHorse"":""1"",""improbClassSelectDog"":""1"",""improbClassSelectFrog"":""1""}",cifar10_train_7843_Airplane.png,spec_conf,Airplane,7843.0
146,survey-html-form,10,641649,z9wsmxlw09yulgw,62bcd9c5252778ec6c023802,20,111979.0,,"{""classSelect"":""mostProbAutomobile"",""prob"":""100"",""classSelect2"":""secondProbNo"",""prob2"":"""",""improbClassSelectShip"":""1"",""improbClassSelectAirplane"":""1"",""improbClassSelectCat"":""1"",""improbClassSelectBird"":""1"",""improbClassSelectHorse"":""1"",""improbClassSelectTruck"":""1"",""improbClassSelectDog"":""1"",""improbClassSelectDeer"":""1"",""improbClassSelectFrog"":""1""}",cifar10_train_8058_Deer.png,spec_conf,Deer,8058.0
147,survey-html-form,11,710225,z9wsmxlw09yulgw,62bcd9c5252778ec6c023802,20,68570.0,,"{""classSelect"":""mostProbAirplane"",""prob"":""100"",""classSelect2"":""secondProbNo"",""prob2"":"""",""improbClassSelectAutomobile"":""1"",""improbClassSelectShip"":""1"",""improbClassSelectCat"":""1"",""improbClassSelectBird"":""1"",""improbClassSelectHorse"":""1"",""improbClassSelectTruck"":""1"",""improbClassSelectDog"":""1"",""improbClassSelectDeer"":""1"",""improbClassSelectFrog"":""1""}",cifar10_train_584_Airplane.png,spec_conf,Airplane,584.0
148,survey-html-form,12,754942,z9wsmxlw09yulgw,62bcd9c5252778ec6c023802,20,44707.0,,"{""classSelect"":""mostProbBird"",""prob"":""100"",""classSelect2"":""secondProbNo"",""prob2"":"""",""improbClassSelectAutomobile"":""1"",""improbClassSelectShip"":""1"",""improbClassSelectAirplane"":""1"",""improbClassSelectCat"":""1"",""improbClassSelectHorse"":""1"",""improbClassSelectTruck"":""1"",""improbClassSelectDog"":""1"",""improbClassSelectDeer"":""1"",""improbClassSelectFrog"":""1""}",cifar10_train_2513_Bird.png,spec_conf,Bird,2513.0
149,survey-html-form,13,777919,z9wsmxlw09yulgw,62bcd9c5252778ec6c023802,20,22967.0,,"{""classSelect"":""mostProbCat"",""prob"":""100"",""classSelect2"":""secondProbNo"",""prob2"":"""",""improbClassSelectAutomobile"":""1"",""improbClassSelectShip"":""1"",""improbClassSelectAirplane"":""1"",""improbClassSelectBird"":""1"",""improbClassSelectHorse"":""1"",""improbClassSelectTruck"":""1"",""improbClassSelectDog"":""1"",""improbClassSelectDeer"":""1"",""improbClassSelectFrog"":""1""}",cifar10_train_6709_Cat.png,spec_conf,Cat,6709.0
150,survey-html-form,14,828113,z9wsmxlw09yulgw,62bcd9c5252778ec6c023802,20,50187.0,,"{""classSelect"":""mostProbFrog"",""prob"":""100"",""classSelect2"":""secondProbNo"",""prob2"":"""",""improbClassSelectAutomobile"":""1"",""improbClassSelectShip"":""1"",""improbClassSelectAirplane"":""1"",""improbClassSelectCat"":""1"",""improbClassSelectBird"":""1"",""improbClassSelectHorse"":""1"",""improbClassSelectTruck"":""1"",""improbClassSelectDog"":""1"",""improbClassSelectDeer"":""1""}",cifar10_train_6264_Frog.png,spec_conf,Frog,6264.0
151,survey-html-form,15,901113,z9wsmxlw09yulgw,62bcd9c5252778ec6c023802,20,72992.0,,"{""classSelect"":""mostProbBird"",""prob"":""100"",""classSelect2"":""secondProbNo"",""prob2"":"""",""improbClassSelectAutomobile"":""1"",""improbClassSelectShip"":""1"",""improbClassSelectAirplane"":""1"",""improbClassSelectCat"":""1"",""improbClassSelectHorse"":""1"",""improbClassSelectTruck"":""1"",""improbClassSelectDog"":""1"",""improbClassSelectDeer"":""1"",""improbClassSelectFrog"":""1""}",cifar10_train_7720_Dog.png,spec_conf,Dog,7720.0
152,survey-html-form,16,929856,z9wsmxlw09yulgw,62bcd9c5252778ec6c023802,20,28735.0,,"{""classSelect"":""mostProbCat"",""prob"":""100"",""classSelect2"":""secondProbNo"",""prob2"":"""",""improbClassSelectAutomobile"":""1"",""improbClassSelectShip"":""1"",""improbClassSelectAirplane"":""1"",""improbClassSelectBird"":""1"",""improbClassSelectHorse"":""1"",""improbClassSelectTruck"":""1"",""improbClassSelectDog"":""1"",""improbClassSelectDeer"":""1"",""improbClassSelectFrog"":""1""}",cifar10_train_4071_Cat.png,spec_conf,Cat,4071.0
153,survey-html-form,17,962368,z9wsmxlw09yulgw,62bcd9c5252778ec6c023802,20,32503.0,,"{""classSelect"":""mostProbDog"",""prob"":""100"",""classSelect2"":""secondProbNo"",""prob2"":"""",""improbClassSelectAutomobile"":""1"",""improbClassSelectShip"":""1"",""improbClassSelectAirplane"":""1"",""improbClassSelectCat"":""1"",""improbClassSelectBird"":""1"",""improbClassSelectHorse"":""1"",""improbClassSelectTruck"":""1"",""improbClassSelectDeer"":""1"",""improbClassSelectFrog"":""1""}",cifar10_train_8173_Dog.png,spec_conf,Dog,8173.0
154,survey-html-form,18,1048513,z9wsmxlw09yulgw,62bcd9c5252778ec6c023802,20,86135.0,,"{""classSelect"":""mostProbFrog"",""prob"":""95"",""classSelect2"":""secondProbDeer"",""prob2"":"""",""improbClassSelectAutomobile"":""1"",""improbClassSelectShip"":""1"",""improbClassSelectAirplane"":""1"",""improbClassSelectTruck"":""1""}",cifar10_train_9076_Frog.png,spec_conf,Frog,9076.0
155,survey-html-form,19,1102141,z9wsmxlw09yulgw,62bcd9c5252778ec6c023802,20,53619.0,,"{""classSelect"":""mostProbAutomobile"",""prob"":""100"",""classSelect2"":""secondProbNo"",""prob2"":"""",""improbClassSelectShip"":""1"",""improbClassSelectAirplane"":""1"",""improbClassSelectCat"":""1"",""improbClassSelectBird"":""1"",""improbClassSelectHorse"":""1"",""improbClassSelectTruck"":""1"",""improbClassSelectDog"":""1"",""improbClassSelectDeer"":""1"",""improbClassSelectFrog"":""1""}",cifar10_train_6759_Automobile.png,spec_conf,Automobile,6759.0
156,survey-html-form,20,1142050,z9wsmxlw09yulgw,62bcd9c5252778ec6c023802,20,39897.0,,"{""classSelect"":""mostProbAutomobile"",""prob"":""100"",""classSelect2"":""secondProbNo"",""prob2"":"""",""improbClassSelectShip"":""1"",""improbClassSelectAirplane"":""1"",""improbClassSelectCat"":""1"",""improbClassSelectBird"":""1"",""improbClassSelectHorse"":""1"",""improbClassSelectTruck"":""1"",""improbClassSelectDog"":""1"",""improbClassSelectDeer"":""1"",""improbClassSelectFrog"":""1""}",cifar10_train_4806_Automobile.png,spec_conf,Automobile,4806.0
157,survey-html-form,21,1206595,z9wsmxlw09yulgw,62bcd9c5252778ec6c023802,20,64536.0,,"{""classSelect"":""mostProbDog"",""prob"":""100"",""classSelect2"":""secondProbNo"",""prob2"":"""",""improbClassSelectAutomobile"":""1"",""improbClassSelectShip"":""1"",""improbClassSelectAirplane"":""1"",""improbClassSelectBird"":""1"",""improbClassSelectHorse"":""1"",""improbClassSelectTruck"":""1"",""improbClassSelectDeer"":""1"",""improbClassSelectFrog"":""1""}",cifar10_train_483_Dog.png,spec_conf,Dog,483.0
158,survey-html-form,22,1239052,z9wsmxlw09yulgw,62bcd9c5252778ec6c023802,20,32450.0,,"{""classSelect"":""mostProbFrog"",""prob"":""100"",""classSelect2"":""secondProbNo"",""prob2"":"""",""improbClassSelectAutomobile"":""1"",""improbClassSelectShip"":""1"",""improbClassSelectAirplane"":""1"",""improbClassSelectCat"":""1"",""improbClassSelectBird"":""1"",""improbClassSelectHorse"":""1"",""improbClassSelectTruck"":""1"",""improbClassSelectDog"":""1"",""improbClassSelectDeer"":""1""}",cifar10_train_8804_Frog.png,spec_conf,Frog,8804.0
159,survey-html-form,23,1261841,z9wsmxlw09yulgw,62bcd9c5252778ec6c023802,20,22780.0,,"{""classSelect"":""mostProbAutomobile"",""prob"":""100"",""classSelect2"":""secondProbNo"",""prob2"":"""",""improbClassSelectShip"":""1"",""improbClassSelectAirplane"":""1"",""improbClassSelectCat"":""1"",""improbClassSelectBird"":""1"",""improbClassSelectHorse"":""1"",""improbClassSelectTruck"":""1"",""improbClassSelectDog"":""1"",""improbClassSelectDeer"":""1"",""improbClassSelectFrog"":""1""}",cifar10_train_6714_Automobile.png,spec_conf,Automobile,6714.0
160,survey-html-form,24,1295819,z9wsmxlw09yulgw,62bcd9c5252778ec6c023802,20,33971.0,,"{""classSelect"":""mostProbDog"",""prob"":""100"",""classSelect2"":""secondProbNo"",""prob2"":"""",""improbClassSelectAutomobile"":""1"",""improbClassSelectShip"":""1"",""improbClassSelectAirplane"":""1"",""improbClassSelectCat"":""1"",""improbClassSelectBird"":""1"",""improbClassSelectHorse"":""1"",""improbClassSelectTruck"":""1"",""improbClassSelectDeer"":""1"",""improbClassSelectFrog"":""1""}",cifar10_train_9369_Dog.png,spec_conf,Dog,9369.0
161,survey-html-form,25,1324665,z9wsmxlw09yulgw,62bcd9c5252778ec6c023802,20,28836.0,,"{""classSelect"":""mostProbDog"",""prob"":""100"",""classSelect2"":""secondProbNo"",""prob2"":"""",""improbClassSelectAutomobile"":""1"",""improbClassSelectShip"":""1"",""improbClassSelectAirplane"":""1"",""improbClassSelectCat"":""1"",""improbClassSelectBird"":""1"",""improbClassSelectHorse"":""1"",""improbClassSelectTruck"":""1"",""improbClassSelectDeer"":""1"",""improbClassSelectFrog"":""1""}",cifar10_train_2767_Dog.png,spec_conf,Dog,2767.0
162,survey-html-form,26,1353488,z9wsmxlw09yulgw,62bcd9c5252778ec6c023802,20,28815.0,,"{""classSelect"":""mostProbDeer"",""prob"":""100"",""classSelect2"":""secondProbNo"",""prob2"":"""",""improbClassSelectAutomobile"":""1"",""improbClassSelectShip"":""1"",""improbClassSelectAirplane"":""1"",""improbClassSelectCat"":""1"",""improbClassSelectBird"":""1"",""improbClassSelectHorse"":""1"",""improbClassSelectTruck"":""1"",""improbClassSelectDog"":""1"",""improbClassSelectFrog"":""1""}",cifar10_train_4661_Deer.png,spec_conf,Deer,4661.0
163,survey-html-form,27,1384224,z9wsmxlw09yulgw,62bcd9c5252778ec6c023802,20,30726.0,,"{""classSelect"":""mostProbAutomobile"",""prob"":""100"",""classSelect2"":""secondProbNo"",""prob2"":"""",""improbClassSelectShip"":""1"",""improbClassSelectAirplane"":""1"",""improbClassSelectCat"":""1"",""improbClassSelectBird"":""1"",""improbClassSelectHorse"":""1"",""improbClassSelectTruck"":""1"",""improbClassSelectDog"":""1"",""improbClassSelectDeer"":""1"",""improbClassSelectFrog"":""1""}",cifar10_train_2784_Automobile.png,spec_conf,Automobile,2784.0
164,survey-html-form,28,1448137,z9wsmxlw09yulgw,62bcd9c5252778ec6c023802,20,63905.0,,"{""classSelect"":""mostProbBird"",""prob"":""100"",""classSelect2"":""secondProbNo"",""prob2"":""0"",""improbClassSelectAutomobile"":""1"",""improbClassSelectShip"":""1"",""improbClassSelectAirplane"":""1"",""improbClassSelectCat"":""1"",""improbClassSelectHorse"":""1"",""improbClassSelectTruck"":""1"",""improbClassSelectDog"":""1"",""improbClassSelectDeer"":""1"",""improbClassSelectFrog"":""1""}",cifar10_train_396_Bird.png,spec_conf,Bird,396.0
165,survey-html-form,29,1489572,z9wsmxlw09yulgw,62bcd9c5252778ec6c023802,20,41424.0,,"{""classSelect"":""mostProbCat"",""prob"":""100"",""classSelect2"":""secondProbNo"",""prob2"":"""",""improbClassSelectAutomobile"":""1"",""improbClassSelectShip"":""1"",""improbClassSelectAirplane"":""1"",""improbClassSelectBird"":""1"",""improbClassSelectHorse"":""1"",""improbClassSelectTruck"":""1"",""improbClassSelectDog"":""1"",""improbClassSelectDeer"":""1"",""improbClassSelectFrog"":""1""}",cifar10_train_8354_Deer.png,spec_conf,Deer,8354.0
166,survey-html-form,30,1527610,z9wsmxlw09yulgw,62bcd9c5252778ec6c023802,20,38031.0,,"{""classSelect"":""mostProbCat"",""prob"":""100"",""classSelect2"":""secondProbNo"",""prob2"":"""",""improbClassSelectAutomobile"":""1"",""improbClassSelectShip"":""1"",""improbClassSelectAirplane"":""1"",""improbClassSelectBird"":""1"",""improbClassSelectHorse"":""1"",""improbClassSelectTruck"":""1"",""improbClassSelectDog"":""1"",""improbClassSelectDeer"":""1"",""improbClassSelectFrog"":""1""}",cifar10_train_7827_Cat.png,spec_conf,Cat,7827.0
167,survey-html-form,31,1549961,z9wsmxlw09yulgw,62bcd9c5252778ec6c023802,20,22344.0,,"{""classSelect"":""mostProbAirplane"",""prob"":""100"",""classSelect2"":""secondProbNo"",""prob2"":"""",""improbClassSelectAutomobile"":""1"",""improbClassSelectShip"":""1"",""improbClassSelectCat"":""1"",""improbClassSelectBird"":""1"",""improbClassSelectHorse"":""1"",""improbClassSelectTruck"":""1"",""improbClassSelectDog"":""1"",""improbClassSelectDeer"":""1"",""improbClassSelectFrog"":""1""}",cifar10_train_584_Airplane.png,rerun_spec_conf,Airplane,584.0
168,survey-html-form,32,1571697,z9wsmxlw09yulgw,62bcd9c5252778ec6c023802,20,21728.0,,"{""classSelect"":""mostProbCat"",""prob"":""100"",""classSelect2"":""secondProbNo"",""prob2"":"""",""improbClassSelectAutomobile"":""1"",""improbClassSelectShip"":""1"",""improbClassSelectAirplane"":""1"",""improbClassSelectBird"":""1"",""improbClassSelectHorse"":""1"",""improbClassSelectTruck"":""1"",""improbClassSelectDog"":""1"",""improbClassSelectDeer"":""1"",""improbClassSelectFrog"":""1""}",cifar10_train_4071_Cat.png,rerun_spec_conf,Cat,4071.0
169,survey-text,33,1634439,z9wsmxlw09yulgw,62bcd9c5252778ec6c023802,20,62713.0,,"{""Q0"":"""",""Q1"":""1"",""Q2"":""almost all were 100% "",""Q3"":"""",""Q4"":"""",""Q5"":""""}",,,,
170,pavlovia,0,4288,naj545pec3pvc4a,62bcd9c5252778ec6c023802,4,,,,,,,
171,external-html,1,14777,naj545pec3pvc4a,62bcd9c5252778ec6c023802,4,9902.0,,,,,,
172,instructions,2,164745,naj545pec3pvc4a,62bcd9c5252778ec6c023802,4,149967.0,"[{""page_index"":0,""viewing_time"":34239},{""page_index"":1,""viewing_time"":21095},{""page_index"":2,""viewing_time"":22840},{""page_index"":3,""viewing_time"":13008},{""page_index"":4,""viewing_time"":30376},{""page_index"":5,""viewing_time"":8536},{""page_index"":6,""viewing_time"":4049},{""page_index"":7,""viewing_time"":10799},{""page_index"":8,""viewing_time"":5025}]",,,,,
173,survey-multi-choice,3,181363,naj545pec3pvc4a,62bcd9c5252778ec6c023802,4,16615.0,,"{""Q0"":""The most likely category, or categories, of an image and the associated probability of the selected categories."",""Q1"":""100 crowdsourced workers.""}",,,,
174,instructions,4,183817,naj545pec3pvc4a,62bcd9c5252778ec6c023802,4,2452.0,"[{""page_index"":0,""viewing_time"":2452}]",,,,,
175,preload,5,202681,naj545pec3pvc4a,62bcd9c5252778ec6c023802,4,,,,,,,
176,survey-html-form,6,255980,naj545pec3pvc4a,62bcd9c5252778ec6c023802,4,53287.0,,"{""classSelect"":""mostProbCat"",""prob"":""100"",""classSelect2"":""secondProbNo"",""prob2"":"""",""improbClassSelectAutomobile"":""1"",""improbClassSelectHorse"":""1"",""improbClassSelectTruck"":""1"",""improbClassSelectFrog"":""1"",""improbClassSelectAirplane"":""1"",""improbClassSelectShip"":""1"",""improbClassSelectBird"":""1""}",cifar10_train_4559_Cat.png,spec_conf,Cat,4559.0
177,survey-html-form,7,302379,naj545pec3pvc4a,62bcd9c5252778ec6c023802,4,46395.0,,"{""classSelect"":""mostProbShip"",""prob"":""75"",""classSelect2"":""secondProbDog"",""prob2"":""25"",""improbClassSelectAutomobile"":""1"",""improbClassSelectHorse"":""1"",""improbClassSelectTruck"":""1"",""improbClassSelectFrog"":""1"",""improbClassSelectAirplane"":""1"",""improbClassSelectShip"":""1"",""improbClassSelectBird"":""1""}",cifar10_train_5469_Dog.png,spec_conf,Dog,5469.0
178,survey-html-form,8,341043,naj545pec3pvc4a,62bcd9c5252778ec6c023802,4,38662.0,,"{""classSelect"":""mostProbFrog"",""prob"":""90"",""classSelect2"":""secondProbCat"",""prob2"":""10"",""improbClassSelectAutomobile"":""1"",""improbClassSelectHorse"":""1"",""improbClassSelectTruck"":""1"",""improbClassSelectAirplane"":""1"",""improbClassSelectShip"":""1"",""improbClassSelectDeer"":""1"",""improbClassSelectBird"":""1""}",cifar10_train_9641_Frog.png,spec_conf,Frog,9641.0
179,survey-html-form,9,372555,naj545pec3pvc4a,62bcd9c5252778ec6c023802,4,31509.0,,"{""classSelect"":""mostProbAutomobile"",""prob"":""100"",""classSelect2"":""secondProbNo"",""prob2"":"""",""improbClassSelectDog"":""1"",""improbClassSelectHorse"":""1"",""improbClassSelectTruck"":""1"",""improbClassSelectFrog"":""1"",""improbClassSelectAirplane"":""1"",""improbClassSelectShip"":""1"",""improbClassSelectDeer"":""1"",""improbClassSelectBird"":""1"",""improbClassSelectCat"":""1""}",cifar10_train_6090_Automobile.png,spec_conf,Automobile,6090.0
180,survey-html-form,10,395339,naj545pec3pvc4a,62bcd9c5252778ec6c023802,4,22781.0,,"{""classSelect"":""mostProbBird"",""prob"":""100"",""classSelect2"":""secondProbNo"",""prob2"":"""",""improbClassSelectDog"":""1"",""improbClassSelectAutomobile"":""1"",""improbClassSelectHorse"":""1"",""improbClassSelectTruck"":""1"",""improbClassSelectFrog"":""1"",""improbClassSelectAirplane"":""1"",""improbClassSelectShip"":""1"",""improbClassSelectDeer"":""1"",""improbClassSelectCat"":""1""}",cifar10_train_3371_Bird.png,spec_conf,Bird,3371.0
181,survey-html-form,11,447868,naj545pec3pvc4a,62bcd9c5252778ec6c023802,4,52525.0,,"{""classSelect"":""mostProbFrog"",""prob"":""99"",""classSelect2"":""secondProbDeer"",""prob2"":"""",""improbClassSelectDog"":""1"",""improbClassSelectAutomobile"":""1"",""improbClassSelectHorse"":""1"",""improbClassSelectTruck"":""1"",""improbClassSelectAirplane"":""1"",""improbClassSelectShip"":""1"",""improbClassSelectBird"":""1"",""improbClassSelectCat"":""1""}",cifar10_train_8698_Frog.png,spec_conf,Frog,8698.0
182,survey-html-form,12,468691,naj545pec3pvc4a,62bcd9c5252778ec6c023802,4,20819.0,,"{""classSelect"":""mostProbHorse"",""prob"":""100"",""classSelect2"":""secondProbNo"",""prob2"":"""",""improbClassSelectDog"":""1"",""improbClassSelectAutomobile"":""1"",""improbClassSelectTruck"":""1"",""improbClassSelectFrog"":""1"",""improbClassSelectAirplane"":""1"",""improbClassSelectShip"":""1"",""improbClassSelectBird"":""1"",""improbClassSelectCat"":""1""}",cifar10_train_7478_Horse.png,spec_conf,Horse,7478.0
183,survey-html-form,13,487307,naj545pec3pvc4a,62bcd9c5252778ec6c023802,4,18613.0,,"{""classSelect"":""mostProbAutomobile"",""prob"":""100"",""classSelect2"":""secondProbNo"",""prob2"":"""",""improbClassSelectDog"":""1"",""improbClassSelectHorse"":""1"",""improbClassSelectTruck"":""1"",""improbClassSelectFrog"":""1"",""improbClassSelectAirplane"":""1"",""improbClassSelectShip"":""1"",""improbClassSelectDeer"":""1"",""improbClassSelectBird"":""1"",""improbClassSelectCat"":""1""}",cifar10_train_1930_Automobile.png,spec_conf,Automobile,1930.0
184,survey-html-form,14,524427,naj545pec3pvc4a,62bcd9c5252778ec6c023802,4,37116.0,,"{""classSelect"":""mostProbCat"",""prob"":""75"",""classSelect2"":""secondProbFrog"",""prob2"":""25"",""improbClassSelectAutomobile"":""1"",""improbClassSelectHorse"":""1"",""improbClassSelectTruck"":""1"",""improbClassSelectAirplane"":""1"",""improbClassSelectShip"":""1"",""improbClassSelectDeer"":""1"",""improbClassSelectBird"":""1""}",cifar10_train_6270_Bird.png,spec_conf,Bird,6270.0
185,survey-html-form,15,567252,naj545pec3pvc4a,62bcd9c5252778ec6c023802,4,42821.0,,"{""classSelect"":""mostProbAirplane"",""prob"":""100"",""classSelect2"":""secondProbNo"",""prob2"":"""",""improbClassSelectDog"":""1"",""improbClassSelectAutomobile"":""1"",""improbClassSelectHorse"":""1"",""improbClassSelectTruck"":""1"",""improbClassSelectFrog"":""1"",""improbClassSelectShip"":""1"",""improbClassSelectDeer"":""1"",""improbClassSelectBird"":""1"",""improbClassSelectCat"":""1""}",cifar10_train_3050_Airplane.png,spec_conf,Airplane,3050.0
186,survey-html-form,16,607749,naj545pec3pvc4a,62bcd9c5252778ec6c023802,4,40493.0,,"{""classSelect"":""mostProbBird"",""prob"":""70"",""classSelect2"":""secondProbDeer"",""prob2"":""30"",""improbClassSelectDog"":""1"",""improbClassSelectAutomobile"":""1"",""improbClassSelectHorse"":""1"",""improbClassSelectTruck"":""1"",""improbClassSelectFrog"":""1"",""improbClassSelectAirplane"":""1"",""improbClassSelectShip"":""1"",""improbClassSelectCat"":""1""}",cifar10_train_7375_Bird.png,spec_conf,Bird,7375.0
187,survey-html-form,17,643179,naj545pec3pvc4a,62bcd9c5252778ec6c023802,4,35427.0,,"{""classSelect"":""mostProbDog"",""prob"":""100"",""classSelect2"":""secondProbNo"",""prob2"":"""",""improbClassSelectAutomobile"":""1"",""improbClassSelectHorse"":""1"",""improbClassSelectTruck"":""1"",""improbClassSelectFrog"":""1"",""improbClassSelectAirplane"":""1"",""improbClassSelectShip"":""1"",""improbClassSelectDeer"":""1"",""improbClassSelectBird"":""1"",""improbClassSelectCat"":""1""}",cifar10_train_2755_Dog.png,spec_conf,Dog,2755.0
188,survey-html-form,18,667748,naj545pec3pvc4a,62bcd9c5252778ec6c023802,4,24566.0,,"{""classSelect"":""mostProbShip"",""prob"":""100"",""classSelect2"":""secondProbNo"",""prob2"":"""",""improbClassSelectDog"":""1"",""improbClassSelectAutomobile"":""1"",""improbClassSelectHorse"":""1"",""improbClassSelectTruck"":""1"",""improbClassSelectFrog"":""1"",""improbClassSelectAirplane"":""1"",""improbClassSelectDeer"":""1"",""improbClassSelectBird"":""1"",""improbClassSelectCat"":""1""}",cifar10_train_8137_Ship.png,spec_conf,Ship,8137.0
189,survey-html-form,19,696747,naj545pec3pvc4a,62bcd9c5252778ec6c023802,4,28996.0,,"{""classSelect"":""mostProbDog"",""prob"":""90"",""classSelect2"":""secondProbCat"",""prob2"":""10"",""improbClassSelectAutomobile"":""1"",""improbClassSelectHorse"":""1"",""improbClassSelectTruck"":""1"",""improbClassSelectFrog"":""1"",""improbClassSelectAirplane"":""1"",""improbClassSelectShip"":""1"",""improbClassSelectDeer"":""1"",""improbClassSelectBird"":""1""}",cifar10_train_9761_Dog.png,spec_conf,Dog,9761.0
190,survey-html-form,20,767516,naj545pec3pvc4a,62bcd9c5252778ec6c023802,4,70765.0,,"{""classSelect"":""mostProbCat"",""prob"":""95"",""classSelect2"":""secondProbDog"",""prob2"":""5"",""improbClassSelectAutomobile"":""1"",""improbClassSelectHorse"":""1"",""improbClassSelectTruck"":""1"",""improbClassSelectFrog"":""1"",""improbClassSelectAirplane"":""1"",""improbClassSelectShip"":""1"",""improbClassSelectDeer"":""1"",""improbClassSelectBird"":""1""}",cifar10_train_3799_Cat.png,spec_conf,Cat,3799.0
191,survey-html-form,21,787764,naj545pec3pvc4a,62bcd9c5252778ec6c023802,4,20245.0,,"{""classSelect"":""mostProbAirplane"",""prob"":""100"",""classSelect2"":""secondProbNo"",""prob2"":"""",""improbClassSelectDog"":""1"",""improbClassSelectAutomobile"":""1"",""improbClassSelectHorse"":""1"",""improbClassSelectTruck"":""1"",""improbClassSelectFrog"":""1"",""improbClassSelectShip"":""1"",""improbClassSelectDeer"":""1"",""improbClassSelectBird"":""1"",""improbClassSelectCat"":""1""}",cifar10_train_2535_Airplane.png,spec_conf,Airplane,2535.0
192,survey-html-form,22,817204,naj545pec3pvc4a,62bcd9c5252778ec6c023802,4,29436.0,,"{""classSelect"":""mostProbShip"",""prob"":""100"",""classSelect2"":""secondProbNo"",""prob2"":"""",""improbClassSelectDog"":""1"",""improbClassSelectAutomobile"":""1"",""improbClassSelectHorse"":""1"",""improbClassSelectTruck"":""1"",""improbClassSelectFrog"":""1"",""improbClassSelectAirplane"":""1"",""improbClassSelectDeer"":""1"",""improbClassSelectBird"":""1"",""improbClassSelectCat"":""1""}",cifar10_train_8725_Ship.png,spec_conf,Ship,8725.0
193,survey-html-form,23,849971,naj545pec3pvc4a,62bcd9c5252778ec6c023802,4,32765.0,,"{""classSelect"":""mostProbDog"",""prob"":""99"",""classSelect2"":""secondProbDeer"",""prob2"":""1"",""improbClassSelectAutomobile"":""1"",""improbClassSelectHorse"":""1"",""improbClassSelectTruck"":""1"",""improbClassSelectFrog"":""1"",""improbClassSelectAirplane"":""1"",""improbClassSelectShip"":""1"",""improbClassSelectBird"":""1"",""improbClassSelectCat"":""1""}",cifar10_train_5642_Dog.png,spec_conf,Dog,5642.0
194,survey-html-form,24,870083,naj545pec3pvc4a,62bcd9c5252778ec6c023802,4,20108.0,,"{""classSelect"":""mostProbBird"",""prob"":""100"",""classSelect2"":""secondProbNo"",""prob2"":"""",""improbClassSelectDog"":""1"",""improbClassSelectAutomobile"":""1"",""improbClassSelectHorse"":""1"",""improbClassSelectTruck"":""1"",""improbClassSelectFrog"":""1"",""improbClassSelectAirplane"":""1"",""improbClassSelectShip"":""1"",""improbClassSelectDeer"":""1"",""improbClassSelectCat"":""1""}",cifar10_train_4491_Bird.png,spec_conf,Bird,4491.0
195,survey-html-form,25,891828,naj545pec3pvc4a,62bcd9c5252778ec6c023802,4,21740.0,,"{""classSelect"":""mostProbDog"",""prob"":""100"",""classSelect2"":""secondProbNo"",""prob2"":"""",""improbClassSelectAutomobile"":""1"",""improbClassSelectHorse"":""1"",""improbClassSelectTruck"":""1"",""improbClassSelectFrog"":""1"",""improbClassSelectAirplane"":""1"",""improbClassSelectShip"":""1"",""improbClassSelectDeer"":""1"",""improbClassSelectBird"":""1"",""improbClassSelectCat"":""1""}",cifar10_train_9465_Dog.png,spec_conf,Dog,9465.0
196,survey-html-form,26,918972,naj545pec3pvc4a,62bcd9c5252778ec6c023802,4,27140.0,,"{""classSelect"":""mostProbBird"",""prob"":""80"",""classSelect2"":""secondProbCat"",""prob2"":""20"",""improbClassSelectDog"":""1"",""improbClassSelectAutomobile"":""1"",""improbClassSelectHorse"":""1"",""improbClassSelectTruck"":""1"",""improbClassSelectFrog"":""1"",""improbClassSelectAirplane"":""1"",""improbClassSelectShip"":""1"",""improbClassSelectDeer"":""1""}",cifar10_train_2408_Bird.png,spec_conf,Bird,2408.0
197,survey-html-form,27,959500,naj545pec3pvc4a,62bcd9c5252778ec6c023802,4,40523.0,,"{""classSelect"":""mostProbAutomobile"",""prob"":""100"",""classSelect2"":""secondProbNo"",""prob2"":"""",""improbClassSelectDog"":""1"",""improbClassSelectHorse"":""1"",""improbClassSelectTruck"":""1"",""improbClassSelectFrog"":""1"",""improbClassSelectAirplane"":""1"",""improbClassSelectShip"":""1"",""improbClassSelectDeer"":""1"",""improbClassSelectBird"":""1"",""improbClassSelectCat"":""1""}",cifar10_train_3253_Truck.png,spec_conf,Truck,3253.0
198,survey-html-form,28,980892,naj545pec3pvc4a,62bcd9c5252778ec6c023802,4,21389.0,,"{""classSelect"":""mostProbCat"",""prob"":""100"",""classSelect2"":""secondProbNo"",""prob2"":"""",""improbClassSelectDog"":""1"",""improbClassSelectAutomobile"":""1"",""improbClassSelectHorse"":""1"",""improbClassSelectTruck"":""1"",""improbClassSelectFrog"":""1"",""improbClassSelectAirplane"":""1"",""improbClassSelectShip"":""1"",""improbClassSelectDeer"":""1"",""improbClassSelectBird"":""1""}",cifar10_train_4526_Cat.png,spec_conf,Cat,4526.0
199,survey-html-form,29,1007482,naj545pec3pvc4a,62bcd9c5252778ec6c023802,4,26587.0,,"{""classSelect"":""mostProbAirplane"",""prob"":""100"",""classSelect2"":""secondProbNo"",""prob2"":"""",""improbClassSelectDog"":""1"",""improbClassSelectAutomobile"":""1"",""improbClassSelectHorse"":""1"",""improbClassSelectTruck"":""1"",""improbClassSelectFrog"":""1"",""improbClassSelectShip"":""1"",""improbClassSelectDeer"":""1"",""improbClassSelectBird"":""1"",""improbClassSelectCat"":""1""}",cifar10_train_847_Airplane.png,spec_conf,Airplane,847.0
200,survey-html-form,30,1035332,naj545pec3pvc4a,62bcd9c5252778ec6c023802,4,27846.0,,"{""classSelect"":""mostProbBird"",""prob"":""100"",""classSelect2"":""secondProbNo"",""prob2"":"""",""improbClassSelectDog"":""1"",""improbClassSelectAutomobile"":""1"",""improbClassSelectHorse"":""1"",""improbClassSelectTruck"":""1"",""improbClassSelectFrog"":""1"",""improbClassSelectShip"":""1"",""improbClassSelectDeer"":""1"",""improbClassSelectCat"":""1""}",cifar10_train_342_Bird.png,spec_conf,Bird,342.0
201,survey-html-form,31,1075740,naj545pec3pvc4a,62bcd9c5252778ec6c023802,4,40403.0,,"{""classSelect"":""mostProbFrog"",""prob"":""98"",""classSelect2"":""secondProbDeer"",""prob2"":""2"",""improbClassSelectAutomobile"":""1"",""improbClassSelectHorse"":""1"",""improbClassSelectTruck"":""1"",""improbClassSelectAirplane"":""1"",""improbClassSelectShip"":""1"",""improbClassSelectBird"":""1"",""improbClassSelectCat"":""1""}",cifar10_train_8698_Frog.png,rerun_spec_conf,Frog,8698.0
202,survey-html-form,32,1132173,naj545pec3pvc4a,62bcd9c5252778ec6c023802,4,56429.0,,"{""classSelect"":""mostProbBird"",""prob"":""95"",""classSelect2"":""secondProbDeer"",""prob2"":""5"",""improbClassSelectDog"":""1"",""improbClassSelectAutomobile"":""1"",""improbClassSelectHorse"":""1"",""improbClassSelectTruck"":""1"",""improbClassSelectFrog"":""1"",""improbClassSelectAirplane"":""1"",""improbClassSelectShip"":""1"",""improbClassSelectCat"":""1""}",cifar10_train_7375_Bird.png,rerun_spec_conf,Bird,7375.0
203,survey-text,33,1259787,naj545pec3pvc4a,62bcd9c5252778ec6c023802,4,127607.0,,"{""Q0"":""10"",""Q1"":""3"",""Q2"":""no"",""Q3"":""no"",""Q4"":""those were easy to mark. "",""Q5"":""""}",,,,
204,pavlovia,0,2858,zfbnaya0jb2hsy8,62b86efd83adc4c5f25f2a50,6,,,,,,,
205,external-html,1,12252,zfbnaya0jb2hsy8,62b86efd83adc4c5f25f2a50,6,9272.399999976158,,,,,,
206,instructions,2,81278,zfbnaya0jb2hsy8,62b86efd83adc4c5f25f2a50,6,69024.70000004768,"[{""page_index"":0,""viewing_time"":4288.600000023842},{""page_index"":1,""viewing_time"":7278.199999928474},{""page_index"":2,""viewing_time"":12280},{""page_index"":3,""viewing_time"":15535.800000071526},{""page_index"":4,""viewing_time"":5738.5},{""page_index"":5,""viewing_time"":2074},{""page_index"":4,""viewing_time"":5277.699999928474},{""page_index"":5,""viewing_time"":4741.900000095367},{""page_index"":6,""viewing_time"":4598.099999904633},{""page_index"":7,""viewing_time"":4750},{""page_index"":8,""viewing_time"":2460.4000000953674}]",,,,,
207,survey-multi-choice,3,93071,zfbnaya0jb2hsy8,62b86efd83adc4c5f25f2a50,6,11789.5,,"{""Q0"":""The most likely category, or categories, of an image and the associated probability of the selected categories."",""Q1"":""100 crowdsourced workers.""}",,,,
208,instructions,4,94612,zfbnaya0jb2hsy8,62b86efd83adc4c5f25f2a50,6,1539.4000000953674,"[{""page_index"":0,""viewing_time"":1539}]",,,,,
209,preload,5,96494,zfbnaya0jb2hsy8,62b86efd83adc4c5f25f2a50,6,,,,,,,
210,survey-html-form,6,150169,zfbnaya0jb2hsy8,62b86efd83adc4c5f25f2a50,6,53670.300000071526,,"{""classSelect"":""mostProbShip"",""prob"":""100"",""classSelect2"":""secondProbNo"",""prob2"":"""",""improbClassSelectHorse"":""1"",""improbClassSelectBird"":""1"",""improbClassSelectFrog"":""1"",""improbClassSelectAirplane"":""1"",""improbClassSelectDog"":""1"",""improbClassSelectDeer"":""1"",""improbClassSelectTruck"":""1"",""improbClassSelectCat"":""1"",""improbClassSelectAutomobile"":""1""}",cifar10_train_7106_Ship.png,spec_conf,Ship,7106.0
211,survey-html-form,7,175489,zfbnaya0jb2hsy8,62b86efd83adc4c5f25f2a50,6,25312.10000002384,,"{""classSelect"":""mostProbTruck"",""prob"":""100"",""classSelect2"":""secondProbNo"",""prob2"":""100"",""improbClassSelectHorse"":""1"",""improbClassSelectBird"":""1"",""improbClassSelectFrog"":""1"",""improbClassSelectAirplane"":""1"",""improbClassSelectDog"":""1"",""improbClassSelectDeer"":""1"",""improbClassSelectShip"":""1"",""improbClassSelectCat"":""1"",""improbClassSelectAutomobile"":""1""}",cifar10_train_6594_Ship.png,spec_conf,Ship,6594.0
212,survey-html-form,8,191551,zfbnaya0jb2hsy8,62b86efd83adc4c5f25f2a50,6,16054.799999952316,,"{""classSelect"":""mostProbAutomobile"",""prob"":""100"",""classSelect2"":""secondProbNo"",""prob2"":""100"",""improbClassSelectHorse"":""1"",""improbClassSelectBird"":""1"",""improbClassSelectFrog"":""1"",""improbClassSelectAirplane"":""1"",""improbClassSelectDog"":""1"",""improbClassSelectDeer"":""1"",""improbClassSelectShip"":""1"",""improbClassSelectTruck"":""1"",""improbClassSelectCat"":""1""}",cifar10_train_3012_Automobile.png,spec_conf,Automobile,3012.0
213,survey-html-form,9,220695,zfbnaya0jb2hsy8,62b86efd83adc4c5f25f2a50,6,29137.700000047684,,"{""classSelect"":""mostProbAirplane"",""prob"":""100"",""classSelect2"":""secondProbAutomobile"",""prob2"":""50"",""improbClassSelectHorse"":""1"",""improbClassSelectBird"":""1"",""improbClassSelectFrog"":""1"",""improbClassSelectDog"":""1"",""improbClassSelectDeer"":""1"",""improbClassSelectShip"":""1"",""improbClassSelectTruck"":""1"",""improbClassSelectCat"":""1""}",cifar10_train_4639_Airplane.png,spec_conf,Airplane,4639.0
214,survey-html-form,10,265558,zfbnaya0jb2hsy8,62b86efd83adc4c5f25f2a50,6,44855.60000002384,,"{""classSelect"":""mostProbBird"",""prob"":""80"",""classSelect2"":""secondProbNo"",""prob2"":""100"",""improbClassSelectHorse"":""1"",""improbClassSelectFrog"":""1"",""improbClassSelectAirplane"":""1"",""improbClassSelectDog"":""1"",""improbClassSelectDeer"":""1"",""improbClassSelectShip"":""1"",""improbClassSelectTruck"":""1"",""improbClassSelectCat"":""1"",""improbClassSelectAutomobile"":""1""}",cifar10_train_3910_Deer.png,spec_conf,Deer,3910.0
215,survey-html-form,11,309863,zfbnaya0jb2hsy8,62b86efd83adc4c5f25f2a50,6,44294.300000071526,,"{""classSelect"":""mostProbDog"",""prob"":""100"",""classSelect2"":""secondProbHorse"",""prob2"":""2"",""improbClassSelectBird"":""1"",""improbClassSelectFrog"":""1"",""improbClassSelectAirplane"":""1"",""improbClassSelectDeer"":""1"",""improbClassSelectShip"":""1"",""improbClassSelectTruck"":""1"",""improbClassSelectCat"":""1"",""improbClassSelectAutomobile"":""1""}",cifar10_train_3981_Dog.png,spec_conf,Dog,3981.0
216,survey-html-form,12,327068,zfbnaya0jb2hsy8,62b86efd83adc4c5f25f2a50,6,17200.699999928474,,"{""classSelect"":""mostProbFrog"",""prob"":""100"",""classSelect2"":""secondProbNo"",""prob2"":""100"",""improbClassSelectHorse"":""1"",""improbClassSelectBird"":""1"",""improbClassSelectAirplane"":""1"",""improbClassSelectDog"":""1"",""improbClassSelectDeer"":""1"",""improbClassSelectShip"":""1"",""improbClassSelectTruck"":""1"",""improbClassSelectCat"":""1"",""improbClassSelectAutomobile"":""1""}",cifar10_train_2666_Frog.png,spec_conf,Frog,2666.0
217,survey-html-form,13,346475,zfbnaya0jb2hsy8,62b86efd83adc4c5f25f2a50,6,19403.10000002384,,"{""classSelect"":""mostProbDeer"",""prob"":""100"",""classSelect2"":""secondProbNo"",""prob2"":""100"",""improbClassSelectHorse"":""1"",""improbClassSelectBird"":""1"",""improbClassSelectFrog"":""1"",""improbClassSelectAirplane"":""1"",""improbClassSelectDog"":""1"",""improbClassSelectShip"":""1"",""improbClassSelectTruck"":""1"",""improbClassSelectCat"":""1"",""improbClassSelectAutomobile"":""1""}",cifar10_train_370_Deer.png,spec_conf,Deer,370.0
218,survey-html-form,14,362878,zfbnaya0jb2hsy8,62b86efd83adc4c5f25f2a50,6,16398.299999952316,,"{""classSelect"":""mostProbAutomobile"",""prob"":""100"",""classSelect2"":""secondProbNo"",""prob2"":""100"",""improbClassSelectHorse"":""1"",""improbClassSelectBird"":""1"",""improbClassSelectFrog"":""1"",""improbClassSelectAirplane"":""1"",""improbClassSelectDog"":""1"",""improbClassSelectDeer"":""1"",""improbClassSelectShip"":""1"",""improbClassSelectTruck"":""1"",""improbClassSelectCat"":""1""}",cifar10_train_962_Automobile.png,spec_conf,Automobile,962.0
